,-,traw,t,-.1,-.2,ECG,Ax,Ay,Az,Amag,Aave,Smooth
0,67,27.9199999999994,0.0,536936130,133133,515,0.193553,0.968863,0.091378,0.9922238736605767,0.4179313333333334,
1,67,27.9399999999994,0.019999999999999574,0,86903,532,0.195688,0.959957,0.084607,0.9833461138592046,0.41341733333333336,
2,67,27.9599999999994,0.03999999999999915,0,86903,537,0.199958,0.97905,0.06161,1.0011582773787568,0.4135393333333333,
3,67,27.9799999999994,0.05999999999999872,536936130,133133,535,0.198616,0.96624,0.07808,0.9895274323918464,0.41431199999999996,
4,67,27.9999999999994,0.0799999999999983,0,86903,554,0.201056,0.971913,0.064843,0.9946069622489077,0.412604,
5,67,28.0199999999994,0.09999999999999787,-778,585,572,0.205448,0.978379,0.063196,1.0017125749240647,0.4156743333333333,
6,67,28.0399999999994,0.11999999999999744,116621,536878210,569,0.204045,0.981063,0.069296,1.0044505501068732,0.4181346666666667,
7,67,28.0599999999994,0.13999999999999702,1073811460,4583547,559,0.201605,0.975329,0.071126,0.9984839218244829,0.41602,
8,67,28.0799999999994,0.16000000000000014,-606,537,491,0.190808,0.974292,0.072651,0.9954550526914815,0.4125836666666667,
9,67,28.0999999999994,0.17999999999999972,116621,536878210,453,0.197945,0.971669,0.078568,0.994734034408193,0.41606066666666663,
10,67,28.1199999999994,0.1999999999999993,-461,488,439,0.200202,0.981002,0.053009,1.002624415665707,0.4114043333333334,
11,67,28.1399999999994,0.21999999999999886,-461,488,417,0.205082,0.976915,0.055815,0.9997684022682453,0.41260399999999997,
12,67,28.1599999999994,0.23999999999999844,116621,536878210,417,0.200202,0.979965,0.070028,1.002654558067234,0.41673166666666667,
13,67,28.1799999999994,0.259999999999998,234636,0,406,0.199775,0.968741,0.077775,0.9921784750391432,0.4154303333333333,
14,67,28.1999999999994,0.2799999999999976,234636,0,396,0.199287,0.963495,0.074664,0.9867181138957569,0.412482,
15,67,28.2199999999994,0.29999999999999716,536936130,133133,395,0.200202,0.966484,0.070516,0.9895173921240596,0.41240066666666664,
16,67,28.2399999999994,0.3200000000000003,0,86903,395,0.205448,0.979477,0.066368,1.0029899230087012,0.41709766666666664,
17,67,28.2599999999994,0.33999999999999986,0,86903,383,0.207644,0.973743,0.066978,0.9978865232424978,0.41612166666666667,
18,67,28.2799999999994,0.35999999999999943,-420,334,375,0.196298,0.975695,0.068076,0.9975710398788649,0.4133563333333334,
19,67,28.2999999999994,0.379999999999999,0,86903,375,0.192272,0.974841,0.069601,0.9960561211427797,0.41223800000000005,
20,67,28.3199999999994,0.3999999999999986,-432,703,374,0.193614,0.974109,0.071614,0.9957425821330531,0.41311233333333336,
21,67,28.3399999999994,0.41999999999999815,116621,536878210,380,0.200141,0.969656,0.067832,0.9924164239073233,0.41254300000000005,
22,67,28.3599999999994,0.4399999999999977,0,86903,383,0.202886,0.976244,0.063318,0.9991117283147065,0.4141493333333333,
23,67,28.3799999999994,0.4599999999999973,-570,-80,375,0.207461,0.975085,0.063867,0.9989543620381264,0.4154709999999999,
24,67,28.3999999999994,0.4800000000000004,116621,536878210,361,0.204167,0.975024,0.065026,0.9982907117373175,0.41473899999999997,
25,67,28.4199999999994,0.5,-281,-259,363,0.199409,0.976122,0.065941,0.9984619790688076,0.413824,
26,67,28.4399999999994,0.5199999999999996,-281,-259,363,0.197457,0.970632,0.069723,0.9929637672150984,0.412604,
27,67,28.4599999999994,0.5399999999999991,116621,536878210,404,0.197518,0.969717,0.068015,0.9919629330967967,0.41175,
28,67,28.4799999999994,0.5599999999999987,536936190,133133,74,0.204472,0.970571,0.069418,0.9943016260416152,0.41482033333333335,
29,67,28.4999999999994,0.5799999999999983,0,86903,-1,0.218136,0.989298,0.036905,1.0137336071794207,0.4147796666666667,
30,67,28.5199999999994,0.5999999999999979,536936130,133133,0,0.20862,0.974048,0.075884,0.9990246203973154,0.41951733333333335,
31,67,28.5399999999994,0.6199999999999974,0,86903,484,0.218502,0.985333,-0.004514,1.0092792582278702,0.3997736666666667,
32,67,28.5599999999994,0.639999999999997,0,86903,509,0.211731,0.974048,0.092049,1.0010357341603746,0.42594266666666675,
33,67,28.5799999999994,0.6600000000000001,5,536936130,542,0.194651,0.947635,0.079849,0.9707095177379276,0.40737833333333334,
34,67,28.5999999999994,0.6799999999999997,0,86903,540,0.186233,0.952454,0.078141,0.9736310226600219,0.4056093333333333,
35,67,28.6199999999994,0.6999999999999993,536878210,102105,547,0.184586,0.960872,0.090463,0.982614138993023,0.4119736666666666,
36,67,28.6399999999994,0.7199999999999989,116621,536878210,556,0.203069,0.982405,0.067954,1.005472201953888,0.4178093333333333,
37,67,28.6599999999994,0.7399999999999984,0,86903,547,0.201544,0.974597,0.086681,0.99898593188593,0.4209406666666667,
38,67,28.6799999999994,0.759999999999998,-582,302,564,0.199592,0.973316,0.069418,0.9959918980815055,0.4141086666666667,
39,67,28.6999999999994,0.7799999999999976,116621,536878210,563,0.20313,0.977525,0.079117,1.0015370298765793,0.419924,
40,67,28.7199999999994,0.7999999999999972,-596,-17,562,0.204899,0.973438,0.082594,0.9981918196824697,0.42031033333333334,
41,67,28.7399999999994,0.8200000000000003,-596,-17,548,0.204228,0.968375,0.082716,0.9931269572743456,0.4184396666666667,
42,67,28.7599999999994,0.8399999999999999,116621,536878210,491,0.20984,0.97478,0.087047,1.0009026197432995,0.423889,
43,67,28.7799999999994,0.8599999999999994,536884860,209577,434,0.215696,0.9699,0.072285,0.9962208066693848,0.4192936666666666,
44,67,28.7999999999994,0.879999999999999,65558,0,428,0.207461,0.971913,0.101443,0.9989722860715406,0.426939,
45,67,28.8199999999994,0.8999999999999986,536936130,133133,407,0.211975,0.967399,0.086681,0.9941367217777441,0.42201833333333333,
46,67,28.8399999999994,0.9199999999999982,0,86903,408,0.194956,0.97417,0.094855,0.9980042594403092,0.42132699999999995,
47,67,28.8599999999994,0.9399999999999977,0,86903,402,0.198677,0.965386,0.09272,0.989969533735761,0.41892766666666664,
48,67,28.8799999999994,0.9599999999999973,536884860,209577,391,0.205265,0.959713,0.090646,0.9855959922351553,0.4185413333333334,
49,67,28.8999999999994,0.9800000000000004,0,86903,389,0.217587,0.971364,0.087352,0.9992609744050851,0.4254343333333334,
50,67,28.9199999999994,1.0,536936130,133133,384,0.220881,0.974658,0.083936,1.0028917614683053,0.4264916666666667,
51,67,28.9399999999994,1.0199999999999996,116621,536878210,373,0.213073,0.974475,0.092598,1.0017864136421495,0.42671533333333334,
52,67,28.9599999999994,1.0399999999999991,0,86903,372,0.206485,0.976793,0.098027,1.0031799005178483,0.4271016666666667,
53,67,28.9799999999994,1.0599999999999987,-983,242,373,0.219112,0.970266,0.09699,0.9994164494343687,0.4287893333333333,
54,67,28.9999999999994,1.0799999999999983,116621,536878210,373,0.218075,0.964166,0.093391,0.9929222829919772,0.4252106666666666,
55,67,29.0199999999994,1.0999999999999979,-1228,1335,372,0.212158,0.967765,0.095343,0.9953242686873459,0.42508866666666667,
56,67,29.0399999999994,1.1199999999999974,-1228,1335,374,0.203923,0.970388,0.094611,0.9960866939147416,0.422974,
57,67,29.0599999999994,1.139999999999997,116621,536878210,368,0.19825,0.977159,0.100833,1.002152716740318,0.42541399999999996,
58,67,29.0799999999994,1.1600000000000001,536884860,209577,364,0.20862,0.977586,0.102175,1.0048066592240519,0.4294603333333333,
59,67,29.0999999999994,1.1799999999999997,0,86903,364,0.201666,0.977891,0.099796,1.0034436830500255,0.42645099999999997,
60,67,29.1199999999994,1.1999999999999993,536884860,209577,364,0.196603,0.97783,0.103761,1.0027814286423538,0.4260646666666667,
61,67,29.1399999999994,1.2199999999999989,0,86903,387,0.200202,0.975024,0.098027,1.0001809506829251,0.42441766666666664,
62,67,29.1599999999994,1.2399999999999984,0,86903,347,0.191784,0.97417,0.103761,0.9982758319607863,0.4232383333333333,
63,67,29.1799999999994,1.259999999999998,234636,0,-1,0.203252,0.99308,0.063684,1.0156647644572494,0.42000533333333334,
64,67,29.1999999999994,1.2799999999999976,536936130,133133,-1,0.180682,0.975634,0.121329,0.9996141322135256,0.42588166666666666,
65,67,29.2199999999994,1.2999999999999972,536936130,133133,402,0.181658,0.974414,0.114558,0.9978004849287256,0.4235433333333333,
66,67,29.2399999999994,1.3200000000000003,116621,536878210,500,0.18544,0.97295,0.132004,0.9992220734731594,0.43013133333333337,
67,67,29.2599999999994,1.3399999999999999,0,86903,506,0.175375,0.969473,0.091988,0.9894928400438278,0.4122786666666667,
68,67,29.2799999999994,1.3599999999999994,-1596,199,513,0.184281,0.96258,0.110898,0.9863154210317305,0.41925299999999993,
69,67,29.2999999999994,1.379999999999999,116621,536878210,522,0.184769,0.969778,0.100162,0.9922909749105854,0.4182363333333334,
70,67,29.3199999999994,1.3999999999999986,-1310,204,535,0.188795,0.978745,0.088267,1.0006879585260333,0.41860233333333335,
71,67,29.3399999999994,1.4199999999999982,-1310,204,530,0.201788,0.967399,0.108336,0.9941407903516484,0.42584099999999997,
72,67,29.3599999999994,1.4399999999999977,116621,536878210,547,0.208803,0.956297,0.099491,0.9838704711998424,0.42153033333333334,
73,67,29.3799999999994,1.4599999999999973,536936130,133133,564,0.204838,0.978257,0.086193,1.0031822354597395,0.42309599999999997,
74,67,29.3999999999994,1.4800000000000004,0,86903,563,0.196664,0.974597,0.091317,0.9984261794414248,0.4208593333333334,
75,67,29.4199999999994,1.5,536936130,133133,546,0.194102,0.974475,0.094489,0.9981008381671663,0.421022,
76,67,29.4399999999994,1.5199999999999996,0,86903,485,0.17873,0.975756,0.094733,0.9965031488786175,0.41640633333333327,
77,67,29.4599999999994,1.5399999999999991,0,86903,430,0.169519,0.97722,0.084363,0.9953957682901812,0.4103673333333333,
78,67,29.4799999999994,1.5599999999999987,0,11069,405,0.166225,0.977281,0.105835,0.9969503251471459,0.41644699999999996,
79,67,29.4999999999994,1.5799999999999983,0,86903,398,0.170129,0.974536,0.080154,0.9925164762627369,0.40827300000000005,
80,67,29.5199999999994,1.5999999999999979,536936130,133133,396,0.170312,0.976305,0.089243,0.9950587638014149,0.41195333333333334,
81,67,29.5399999999994,1.6199999999999974,116621,536878210,390,0.175802,0.976732,0.089426,0.9964480681420382,0.4139866666666667,
82,67,29.5599999999994,1.639999999999997,0,86903,383,0.178852,0.977342,0.091073,0.9977372971864888,0.4157556666666667,
83,67,29.5799999999994,1.6600000000000001,-324,540,375,0.185013,0.984845,0.093818,1.0064548183192328,0.42122533333333334,
84,67,29.5999999999994,1.6799999999999997,116621,536878210,374,0.192943,0.98271,0.094184,1.0058909340505062,0.423279,
85,67,29.6199999999994,1.6999999999999993,-365,691,365,0.196786,0.980514,0.093208,1.0044004008641174,0.42350266666666664,
86,67,29.6399999999994,1.7199999999999989,-365,691,367,0.20191,0.980026,0.092415,1.0048677231362344,0.4247836666666666,
87,67,29.6599999999994,1.7399999999999984,116621,536878210,366,0.198433,0.97905,0.094367,1.0034040505588961,0.42395000000000005,
88,67,29.6799999999994,1.759999999999998,536936130,133133,350,0.188307,0.976122,0.0976,0.9988991165943637,0.4206763333333334,
89,67,29.6999999999994,1.7799999999999976,0,86903,353,0.193492,0.971852,0.102541,0.9962179082153664,0.4226283333333334,
90,67,29.7199999999994,1.7999999999999972,536936130,133133,360,0.19154,0.973804,0.100833,0.9975715993877332,0.42205899999999996,
91,67,29.7399999999994,1.8200000000000003,536936130,133133,364,0.18605,0.972523,0.094306,0.9946402413259782,0.4176263333333334,
92,67,29.7599999999994,1.8399999999999999,0,86903,360,0.193126,0.973621,0.088816,0.9965559619875844,0.418521,
93,67,29.7799999999994,1.8599999999999994,-426,792,350,0.195993,0.972584,0.091134,0.9963123501497911,0.4199036666666667,
94,67,29.7999999999994,1.879999999999999,0,86903,358,0.2013,0.972828,0.090524,0.997552305475758,0.4215506666666667,
95,67,29.8199999999994,1.8999999999999986,-466,271,351,0.20191,0.971181,0.091073,0.9961197087649656,0.42138799999999993,
96,67,29.8399999999994,1.9199999999999982,116621,536878210,409,0.204228,0.968863,0.091256,0.994350162814388,0.421449,
97,67,29.8599999999994,1.9399999999999977,0,86903,154,0.207095,0.966606,0.097234,0.993312613942358,0.423645,
98,67,29.8799999999994,1.9599999999999973,-505,217,-1,0.212463,0.980697,0.064233,1.0055013726828024,0.419131,
99,67,29.8999999999994,1.9800000000000004,116621,536878210,0,0.196908,0.954528,0.136274,0.9841072433043058,0.4292366666666667,
100,67,29.9199999999994,2.0,-855,599,490,0.198006,0.959835,0.122915,0.9877234939425101,0.4269186666666666,0.41879600330033007
101,67,29.9399999999994,2.0199999999999996,-855,599,503,0.207461,0.977037,0.11163,1.0050386175615342,0.43204266666666663,0.4189357194719473
102,67,29.9599999999994,2.039999999999999,116621,536878210,512,0.197518,0.974902,0.08845,0.9986344037874922,0.42029,0.4190037656765677
103,67,29.9799999999994,2.0599999999999987,536936130,133133,523,0.206119,0.960872,0.102114,0.9880219185529235,0.423035,0.4190977821782179
104,67,29.9999999999994,2.0799999999999983,0,86903,524,0.209657,0.965691,0.096685,0.9929064177227378,0.42401099999999997,0.41919381188118826
105,67,30.0199999999994,2.099999999999998,536936130,133133,536,0.210389,0.972218,0.084302,0.9982876329239986,0.42230300000000004,0.4192898415841585
106,67,30.0399999999994,2.1199999999999974,536936130,133133,534,0.21045,0.971059,0.091256,0.9977837649095118,0.424255,0.41937479867986804
107,67,30.0599999999994,2.139999999999997,0,86903,550,0.210694,0.96319,0.091134,0.9901678361227454,0.42167266666666664,0.4194098283828383
108,67,30.0799999999994,2.16,-972,394,562,0.212036,0.978501,0.092293,1.005455851912952,0.42761,0.4195245808580858
109,67,30.0999999999994,2.1799999999999997,0,86903,561,0.209169,0.970937,0.096929,0.9979306386573168,0.4256783333333334,0.41965423102310234
110,67,30.1199999999994,2.1999999999999993,-858,395,542,0.212219,0.966667,0.097417,0.9944707460448498,0.4254343333333334,0.4197470396039604
111,67,30.1399999999994,2.219999999999999,116621,536878210,486,0.203069,0.968741,0.100955,0.9949311814728695,0.424255,0.41987427392739285
112,67,30.1599999999994,2.2399999999999984,0,86903,445,0.202276,0.975817,0.08418,1.0001103289462618,0.42075766666666664,0.4199550033003302
113,67,30.1799999999994,2.259999999999998,234636,0,427,0.205753,0.963434,0.107787,0.9910385495700962,0.42565800000000004,0.42004338283828385
114,67,30.1999999999994,2.2799999999999976,116621,536878210,421,0.200202,0.969351,0.087413,0.9936615291808373,0.4189886666666667,0.42007861386138623
115,67,30.2199999999994,2.299999999999997,-790,283,417,0.197213,0.97783,0.086315,1.0012466007402971,0.42045266666666664,0.42015753135313544
116,67,30.2399999999994,2.3200000000000003,-790,283,411,0.203862,0.973621,0.092598,0.9990355130269394,0.42336033333333334,0.4202660429042906
117,67,30.2599999999994,2.34,116621,536878210,398,0.205509,0.969351,0.090951,0.9950615029650177,0.421937,0.4203139570957097
118,67,30.2799999999994,2.3599999999999994,234236,4911,392,0.201239,0.973072,0.095526,0.9982441930614974,0.423279,0.42038482178217834
119,67,30.2999999999994,2.379999999999999,0,86903,386,0.201422,0.967094,0.098881,0.9927835006087682,0.42246566666666663,0.42047501320132025
120,67,30.3199999999994,2.3999999999999986,536936130,133133,383,0.198555,0.966423,0.098698,0.9915335587654107,0.42122533333333334,0.4205639966996701
121,67,30.3399999999994,2.419999999999998,536936130,133133,379,0.194407,0.969656,0.09943,0.9939382097922385,0.4211643333333333,0.42064371947194723
122,67,30.3599999999994,2.4399999999999977,0,86903,382,0.199287,0.969229,0.100162,0.9945615059180604,0.42289266666666664,0.420746191419142
123,67,30.3799999999994,2.4599999999999973,116621,536878210,371,0.199226,0.969717,0.100101,0.9950187281483701,0.4230146666666667,0.4208339669966997
124,67,30.3999999999994,2.4800000000000004,0,86903,378,0.198555,0.972523,0.094123,0.9970377187865062,0.4217336666666667,0.42089597359735986
125,67,30.4199999999994,2.5,536936130,133133,381,0.198006,0.973499,0.095953,0.9980549369879396,0.422486,0.4209726765676568
126,67,30.4399999999994,2.5199999999999996,116621,536878210,381,0.194895,0.974414,0.093391,0.9980924723200751,0.4209,0.4210427359735975
127,67,30.4599999999994,2.539999999999999,0,86903,378,0.194102,0.971547,0.098698,0.9956507695055532,0.421449,0.42113031023102326
128,67,30.4799999999994,2.5599999999999987,-376,448,372,0.194651,0.972401,0.096868,0.9964116247946929,0.42130666666666666,0.42122493069306943
129,67,30.4999999999994,2.5799999999999983,536936130,133133,369,0.194651,0.973804,0.098332,0.9979240574517683,0.42226233333333335,0.4212986138613863
130,67,30.5199999999994,2.599999999999998,-464,524,367,0.195139,0.974719,0.098698,0.9989482736788727,0.422852,0.42137853795379554
131,67,30.5399999999994,2.6199999999999974,-464,524,367,0.195505,0.971974,0.099186,0.9963902469901037,0.42222166666666666,0.4214053135313533
132,67,30.5599999999994,2.639999999999997,536936130,133133,479,0.191601,0.973499,0.101687,0.9973722936652091,0.42226233333333335,0.4216279735973599
133,67,30.5799999999994,2.66,536936130,133133,-1,0.192943,0.97478,0.100833,0.9987944450876767,0.422852,0.4215973729372938
134,67,30.5999999999994,2.6799999999999997,0,86903,-2,0.196969,0.989725,0.068137,1.0114321595416076,0.41827699999999995,0.421705280528053
135,67,30.6199999999994,2.6999999999999993,536936130,133133,34,0.183,0.954467,0.154879,0.9841157242570611,0.430782,0.4219545148514854
136,67,30.6399999999994,2.719999999999999,536936130,133133,554,0.196115,0.983503,0.092537,1.0071257819175319,0.4240516666666667,0.42207409900990117
137,67,30.6599999999994,2.7399999999999984,0,86903,518,0.182878,0.98027,0.093696,1.001575047712352,0.41894800000000004,0.42208537293729387
138,67,30.6799999999994,2.759999999999998,-831,382,529,0.183305,0.969412,0.102785,0.9919299899660259,0.41850066666666663,0.4220612145214523
139,67,30.6999999999994,2.7799999999999976,0,86903,533,0.190991,0.959347,0.119682,0.9854684214189716,0.42334,0.42215261386138625
140,67,30.7199999999994,2.799999999999997,536936130,133133,531,0.190442,0.960079,0.115961,0.9856301512869825,0.42216066666666663,0.42217475907590774
141,67,30.7399999999994,2.8200000000000003,536936130,133133,539,0.193248,0.98027,0.09394,1.0035431161659174,0.422486,0.42219630033003314
142,67,30.7599999999994,2.84,0,86903,536,0.192028,0.966423,0.104188,0.9908094201495059,0.4208796666666667,0.42222045874587466
143,67,30.7799999999994,2.8599999999999994,-975,582,549,0.197457,0.97234,0.097478,0.9969635414261646,0.422425,0.42220596369636965
144,67,30.7999999999994,2.879999999999999,536936130,133133,553,0.194468,0.979416,0.098576,1.0033896211621884,0.4241533333333333,0.4222540792079209
145,67,30.8199999999994,2.8999999999999986,-956,417,548,0.191967,0.976244,0.099613,0.9999132094306985,0.42260799999999993,0.422211198019802
146,67,30.8399999999994,2.919999999999998,-956,417,512,0.191662,0.970388,0.10187,0.9943664765507735,0.42130666666666666,0.4222041518151816
147,67,30.8599999999994,2.9399999999999977,536936130,133133,464,0.191174,0.971974,0.10797,0.9964629826802399,0.42370599999999997,0.4222277062706271
148,67,30.8799999999994,2.9599999999999973,536936130,133133,437,0.188246,0.981612,0.097051,1.004199965973411,0.42230300000000004,0.42226112541254124
149,67,30.8999999999994,2.9800000000000004,0,86903,411,0.195993,0.971791,0.099613,0.9963502162889312,0.42246566666666663,0.4222999801980199
150,67,30.9199999999994,3.0,536884860,209577,414,0.186416,0.978623,0.103578,1.0015898877629505,0.4228723333333333,0.4222746138613861
151,67,30.9399999999994,3.0199999999999996,65558,0,410,0.187514,0.980514,0.089243,1.0022641954300273,0.41909033333333334,0.4222013333333334
152,67,30.9599999999994,3.039999999999999,0,86903,397,0.192394,0.968009,0.103578,0.9923634804853513,0.421327,0.42214798349834987
153,67,30.9799999999994,3.0599999999999987,-817,373,392,0.191479,0.97661,0.09638,0.9998601921973891,0.4214896666666666,0.42209241914191414
154,67,30.9999999999994,3.0799999999999983,0,86903,390,0.191296,0.973194,0.099735,0.9968188358357801,0.42140833333333333,0.4220193399339934
155,67,31.0199999999994,3.099999999999998,0,86903,384,0.190503,0.970327,0.100406,0.9939352316796101,0.420412,0.4219718283828382
156,67,31.0399999999994,3.1199999999999974,536936130,133133,378,0.187758,0.969412,0.103273,0.9928131772075752,0.42014766666666664,0.421922907590759
157,67,31.0599999999994,3.139999999999997,0,86903,375,0.185196,0.971852,0.102907,0.9946776960246974,0.41998500000000005,0.4218933135313529
158,67,31.0799999999994,3.16,536936130,133133,371,0.185257,0.972096,0.105408,0.9951892461883819,0.42092033333333334,0.4218488217821781
159,67,31.0999999999994,3.1799999999999997,536936130,133133,373,0.188917,0.974109,0.100894,0.9973753435923709,0.42130666666666666,0.42176809240924074
160,67,31.1199999999994,3.1999999999999993,0,86903,369,0.18849,0.975085,0.099918,0.998149710238399,0.4211643333333333,0.4217157491749173
161,67,31.1399999999994,3.219999999999999,-583,1008,374,0.18788,0.972828,0.099857,0.9958235950372938,0.4201883333333334,0.42165756765676554
162,67,31.1599999999994,3.2399999999999984,536936130,133133,378,0.188734,0.972035,0.102114,0.9954395174881294,0.420961,0.42162334323432327
163,67,31.1799999999994,3.259999999999998,234636,0,375,0.190198,0.972035,0.100772,0.995581396176626,0.4210016666666667,0.42160119801980184
164,67,31.1999999999994,3.2799999999999976,234636,0,373,0.190564,0.975329,0.101138,0.9989044956255828,0.4223436666666667,0.42162434983498337
165,67,31.2199999999994,3.299999999999997,536936130,133133,368,0.191479,0.973621,0.098881,0.997185795748716,0.421327,0.42157925412541236
166,67,31.2399999999994,3.3200000000000003,536936130,133133,365,0.188124,0.973133,0.10187,0.9963714026230379,0.4210423333333333,0.42155449174917475
167,67,31.2599999999994,3.34,-2142765060,179363,366,0.187392,0.974597,0.098576,0.9973325933955032,0.4201883333333334,0.42145604620462035
168,67,31.2799999999994,3.3599999999999994,-734,115,440,0.185013,0.976183,0.098332,0.9984148646139039,0.41984266666666675,0.4215309372937293
169,67,31.2999999999994,3.379999999999999,0,86903,33,0.188429,0.976915,0.09272,0.9992324072336725,0.4193546666666666,0.42153194389438936
170,67,31.3199999999994,3.3999999999999986,0,86903,0,0.19398,0.984113,0.079971,1.0062315826935666,0.4193546666666667,0.42154301650165
171,67,31.3399999999994,3.419999999999998,-877,462,374,0.191052,0.967826,0.096746,0.991235502540138,0.4185413333333334,0.42154241254125396
172,67,31.3599999999994,3.4399999999999977,0,86903,527,0.194468,0.97783,0.060268,0.9988000519363222,0.41085533333333335,0.42139403960396016
173,67,31.3799999999994,3.4599999999999973,-982,550,508,0.192882,0.988322,0.098881,1.011810898226047,0.42669500000000005,0.42144517491749156
174,67,31.3999999999994,3.4800000000000004,536936130,133133,509,0.186721,0.975451,0.089975,0.9972286026117582,0.4173823333333333,0.4213886039603959
175,67,31.4199999999994,3.5,0,86903,505,0.178364,0.968192,0.12749,0.9927049740280343,0.42468200000000006,0.42142645214521435
176,67,31.4399999999994,3.5199999999999996,-932,368,510,0.186477,0.967277,0.099979,0.9901486083911849,0.4179110000000001,0.4213956501650163
177,67,31.4599999999994,3.539999999999999,536936130,133133,515,0.188917,0.980941,0.100223,1.0039818365383906,0.42336033333333334,0.4214645016501648
178,67,31.4799999999994,3.5599999999999987,0,86903,515,0.193553,0.985333,0.091805,1.0083511505041287,0.42356366666666667,0.42159515841584144
179,67,31.4999999999994,3.5799999999999983,0,86903,513,0.188978,0.974048,0.100223,0.9972596655420293,0.42108300000000004,0.42164105940594043
180,67,31.5199999999994,3.599999999999998,536936130,133133,523,0.194407,0.979965,0.096624,1.0037239063856156,0.42366533333333334,0.4217934587458745
181,67,31.5399999999994,3.6199999999999974,536884860,209577,511,0.186294,0.971852,0.10614,0.9952223188514213,0.4214286666666667,0.42188727392739256
182,67,31.5599999999994,3.639999999999997,0,86903,499,0.187148,0.969412,0.1037,0.9927425092379192,0.42008666666666666,0.42194766996699656
183,67,31.5799999999994,3.66,-907,609,469,0.186172,0.970876,0.105652,0.9941944307146364,0.42090000000000005,0.4219986039603959
184,67,31.5999999999994,3.6799999999999997,0,86903,449,0.183915,0.981734,0.102602,1.0040684958632056,0.42275033333333334,0.4220137029702969
185,67,31.6199999999994,3.6999999999999993,0,86903,425,0.190808,0.969473,0.096136,0.9927374885079137,0.4188056666666667,0.42196941254125403
186,67,31.6399999999994,3.719999999999999,-934,532,419,0.183976,0.984906,0.093818,1.0063244081984695,0.4209,0.4219436435643563
187,67,31.6599999999994,3.7399999999999984,0,86903,411,0.188246,0.981551,0.093513,1.0038045642882882,0.42110333333333333,0.421907204620462
188,67,31.6799999999994,3.759999999999998,-898,513,404,0.190747,0.973316,0.090951,0.9959922380550965,0.41833800000000004,0.4218516402640263
189,67,31.6999999999994,3.7799999999999976,536936130,133133,396,0.190564,0.976976,0.091622,0.9995955850022548,0.4197206666666667,0.42184217821782166
190,67,31.7199999999994,3.799999999999997,0,86903,387,0.187026,0.976671,0.091927,0.9986568681213783,0.4185413333333334,0.421801712871287
191,67,31.7399999999994,3.8200000000000003,-877,495,375,0.185379,0.97173,0.096624,0.9939621541673506,0.417911,0.4217606435643563
192,67,31.7599999999994,3.84,536936130,133133,376,0.183976,0.975085,0.096441,0.9969647898907965,0.41850066666666663,0.4217693003300328
193,67,31.7799999999994,3.8599999999999994,0,86903,371,0.183305,0.973499,0.096197,0.9952662401764666,0.417667,0.4217608448844883
194,67,31.7999999999994,3.879999999999999,0,86903,372,0.185379,0.976305,0.094855,0.9982656448516096,0.41884633333333326,0.4217503762376237
195,67,31.8199999999994,3.8999999999999986,536936130,133133,369,0.186294,0.976793,0.093086,0.9987467259926313,0.4187243333333333,0.42172239273927387
196,67,31.8399999999994,3.919999999999998,536936130,133133,377,0.189222,0.972401,0.091683,0.9948740837784448,0.4177686666666667,0.42168655775577557
197,67,31.8599999999994,3.9399999999999977,0,86903,375,0.187819,0.973499,0.089914,0.9955203700366959,0.41707733333333336,0.42164327392739276
198,67,31.8799999999994,3.9599999999999973,-623,219,370,0.18666,0.972645,0.092354,0.9946906619351567,0.4172196666666667,0.4215796567656766
199,67,31.8999999999994,3.9800000000000004,0,86903,364,0.193065,0.972889,0.090951,0.9960216789543288,0.41896833333333333,0.42157804620462047
200,67,31.9199999999994,4.0,0,86903,358,0.191967,0.974719,0.092049,0.9976980888279781,0.41957833333333333,0.4214824191419142
201,67,31.9399999999994,4.02,116621,536878210,363,0.188246,0.968131,0.094001,0.9907322431807698,0.41679266666666664,0.4213821617161716
202,67,31.9599999999994,4.039999999999999,0,86903,425,0.186294,0.969473,0.096014,0.9918679551033999,0.41726033333333334,0.421235801980198
203,67,31.9799999999994,4.059999999999999,-608,258,255,0.185745,0.971669,0.096868,0.9939945975758621,0.41809399999999997,0.4212140594059406
204,67,31.9999999999994,4.079999999999998,536936130,133133,0,0.194895,0.980697,0.080825,1.003136754116307,0.41880566666666663,0.42117218481848184
205,67,32.0199999999994,4.099999999999998,0,86903,0,0.183732,0.958981,0.127734,0.984742596286461,0.42348233333333335,0.42116695049504943
206,67,32.0399999999994,4.120000000000001,-682,346,489,0.193675,0.981124,0.069357,1.0024593270801565,0.4147186666666666,0.42109185808580846
207,67,32.0599999999994,4.139999999999997,536936130,133133,482,0.191418,0.985272,0.090341,1.0077515869444216,0.4223436666666667,0.42107293399339923
208,67,32.0799999999994,4.16,536936130,133133,482,0.187331,0.981612,0.062525,1.0012813779003382,0.4104893333333333,0.420962207920792
209,67,32.0999999999994,4.179999999999996,0,86903,468,0.178425,0.956358,0.116632,0.9798260703885154,0.4171383333333334,0.42085852805280516
210,67,32.1199999999994,4.199999999999999,536936130,133133,485,0.183793,0.952454,0.111752,0.9764409856560713,0.4159996666666667,0.4207626996699668
211,67,32.1399999999994,4.219999999999995,536884860,209577,494,0.193919,0.97661,0.085339,0.9993269813139241,0.41862266666666664,0.42069525742574243
212,67,32.1599999999994,4.239999999999998,0,86903,490,0.194163,0.976793,0.084485,0.9994806404543312,0.41848033333333334,0.42063808250825063
213,67,32.1799999999994,4.260000000000002,536936130,133133,490,0.192028,0.976061,0.086254,0.9985036710102773,0.4181143333333333,0.4206119108910889
214,67,32.1999999999994,4.279999999999998,0,86903,495,0.191418,0.973682,0.09516,0.9968715631654863,0.42008666666666666,0.4205567491749173
215,67,32.2199999999994,4.300000000000001,0,86903,492,0.189344,0.971303,0.09638,0.9942684610028621,0.41900899999999996,0.4205569504950494
216,67,32.2399999999994,4.319999999999997,-837,655,471,0.187697,0.972218,0.096258,0.9948384823160994,0.4187243333333333,0.4205398382838283
217,67,32.2599999999994,4.34,0,86903,464,0.187575,0.976122,0.099247,0.9989236740201927,0.4209813333333334,0.4205162838283827
218,67,32.2799999999994,4.359999999999996,-758,630,446,0.192577,0.982466,0.08418,1.0046947867312739,0.419741,0.4204945412541253
219,67,32.2999999999994,4.379999999999999,536936130,133133,441,0.195078,0.974475,0.098698,0.9986982762140926,0.42275033333333334,0.420489306930693
220,67,32.3199999999994,4.400000000000002,0,86903,417,0.185074,0.977952,0.089975,0.999368800996409,0.417667,0.4204417953795379
221,67,32.3399999999994,4.419999999999998,-719,553,410,0.190442,0.970327,0.098149,0.9936980771310772,0.4196393333333334,0.42042609240924084
222,67,32.3599999999994,4.440000000000001,536936130,133133,407,0.192821,0.967948,0.086559,0.9907551308098284,0.415776,0.42037274257425744
223,67,32.3799999999994,4.459999999999997,536936130,133133,403,0.193309,0.975146,0.084912,0.9977415189020651,0.417789,0.42032221122112207
224,67,32.3999999999994,4.48,0,86903,392,0.18666,0.978806,0.09028,1.0005266711267622,0.41858199999999995,0.4202783234323433
225,67,32.4199999999994,4.4999999999999964,536936130,133133,385,0.189527,0.971181,0.09455,0.9940084109251792,0.4184193333333333,0.42024550825082513
226,67,32.4399999999994,4.52,536936130,133133,386,0.188978,0.975329,0.091073,0.997634018091805,0.41846,0.4202056468646866
227,67,32.4599999999994,4.539999999999996,0,86903,385,0.189527,0.975939,0.091683,0.9983902983998793,0.4190496666666666,0.4201873267326734
228,67,32.4799999999994,4.559999999999999,-827,807,382,0.191174,0.975207,0.090036,0.9978390012527071,0.4188056666666667,0.42016115511551166
229,67,32.4999999999994,4.580000000000002,0,86903,383,0.188978,0.974414,0.091744,0.9968010279970622,0.4183786666666667,0.4201321650165018
230,67,32.5199999999994,4.599999999999998,0,86903,388,0.188856,0.976061,0.089975,0.9982270107956406,0.4182973333333333,0.4200929075907593
231,67,32.5399999999994,4.620000000000001,-210,472,378,0.188856,0.97661,0.0854,0.9983620790254406,0.4169553333333333,0.4200345247524754
232,67,32.5599999999994,4.639999999999997,0,86903,369,0.191052,0.973072,0.086254,0.9953942617897695,0.41679266666666676,0.4199807722772279
233,67,32.5799999999994,4.66,-324,642,370,0.190503,0.971974,0.08723,0.994300720398512,0.41656899999999997,0.4199244026402642
234,67,32.5999999999995,4.680000000000096,536936130,133133,369,0.187331,0.97417,0.08662,0.9957927077765732,0.4160403333333333,0.4198569603960398
235,67,32.6199999999995,4.700000000000099,0,86903,374,0.184708,0.976976,0.08662,0.9980491842790113,0.41610133333333327,0.41983541914191436
236,67,32.6399999999995,4.720000000000102,-182,301,0,0.191296,0.977769,0.080581,0.9995597403547224,0.4165486666666667,0.4196944950495052
237,67,32.6599999999995,4.740000000000098,536936130,133133,-1,0.195688,0.98942,0.062098,1.0104958640924762,0.41573533333333335,0.4196121551155117
238,67,32.6799999999995,4.760000000000101,536936130,133133,0,0.1891,0.982588,0.065819,1.0027811967248887,0.41250233333333336,0.41954833663366353
239,67,32.6999999999995,4.780000000000097,0,86903,366,0.195627,0.973865,0.052826,0.9947228496571294,0.4074393333333333,0.41943881848184833
240,67,32.7199999999995,4.8000000000001,536936130,133133,526,0.194651,0.991006,0.09028,1.0139686298091277,0.4253123333333333,0.41945834653465364
241,67,32.7399999999995,4.820000000000096,536884860,209577,509,0.176534,0.973743,0.102297,0.9948891191554967,0.4175246666666667,0.41941244554455465
242,67,32.7599999999995,4.840000000000099,0,86903,504,0.175863,0.960384,0.109495,0.9824736012992918,0.4152473333333333,0.41934077557755794
243,67,32.7799999999995,4.860000000000095,-672,523,510,0.180621,0.953125,0.114863,0.976864739887258,0.41620299999999993,0.4192944719471949
244,67,32.7999999999995,4.8800000000000985,0,86903,528,0.187148,0.976366,0.077714,0.9971732074499394,0.41374266666666665,0.4192085082508252
245,67,32.8199999999995,4.900000000000102,0,86903,528,0.186111,0.982527,0.08357,1.003484207623618,0.41740266666666664,0.41914166996699687
246,67,32.8399999999995,4.920000000000098,-624,740,542,0.19032,0.973194,0.083814,0.995164835910112,0.415776,0.4190740264026404
247,67,32.8599999999995,4.940000000000101,0,86903,550,0.191479,0.984662,0.080154,1.0063041912866109,0.41876500000000005,0.4190488613861387
248,67,32.8799999999995,4.960000000000097,-594,309,551,0.189161,0.982344,0.085034,1.0039982068773827,0.4188463333333334,0.4190007458745876
249,67,32.8999999999995,4.9800000000001,536936130,133133,530,0.187392,0.969534,0.095892,0.9921225803720023,0.417606,0.4189542409240926
250,67,32.9199999999995,5.000000000000096,0,86903,492,0.188368,0.970998,0.090219,0.9932064676536295,0.4165283333333334,0.41889545544554463
251,67,32.9399999999995,5.020000000000099,-640,302,439,0.182695,0.982588,0.07503,1.0022405607781997,0.41343766666666665,0.4188020429042906
252,67,32.9599999999995,5.040000000000102,536936130,133133,438,0.185013,0.976915,0.100589,0.9993552292928676,0.420839,0.41881935643564366
253,67,32.9799999999995,5.060000000000098,536936130,133133,419,0.193736,0.970876,0.100101,0.9950648497826662,0.421571,0.41882177227722783
254,67,32.9999999999995,5.080000000000101,0,86903,425,0.180255,0.984296,0.089121,1.0046258175470109,0.41789066666666663,0.41878613861386144
255,67,33.0199999999995,5.100000000000097,536936130,133133,418,0.184891,0.975268,0.086437,0.9963953576136332,0.415532,0.4187279570957096
256,67,33.0399999999995,5.1200000000001005,536884860,209577,400,0.192455,0.969778,0.088267,0.9926224657935161,0.4168333333333334,0.4186925247524753
257,67,33.0599999999995,5.1400000000000965,0,86903,400,0.191784,0.975024,0.086254,0.9974430589001059,0.41768733333333335,0.41866816501650167
258,67,33.0799999999995,5.1600000000001,-618,386,391,0.189466,0.979538,0.087413,1.0015153973699056,0.41880566666666663,0.41865648844884484
259,67,33.0999999999995,5.180000000000096,0,86903,389,0.184586,0.975268,0.08906,0.996569790240503,0.4163046666666666,0.4186107887788779
260,67,33.1199999999995,5.200000000000099,0,86903,385,0.18422,0.973987,0.088694,0.995215710388959,0.4156336666666667,0.41855462046204617
261,67,33.1399999999995,5.220000000000102,-468,983,391,0.184891,0.973072,0.09333,0.994868980300924,0.41709766666666664,0.41851435643564355
262,67,33.1599999999995,5.240000000000098,0,86903,388,0.184342,0.971547,0.093147,0.9932582291539296,0.4163453333333334,0.41847630693069304
263,67,33.1799999999995,5.260000000000101,234636,0,385,0.186416,0.973133,0.0915,0.9950432205411984,0.41701633333333327,0.4184372508250825
264,67,33.1999999999995,5.280000000000097,536936130,133133,381,0.187758,0.975817,0.09028,0.9978087805050625,0.41795166666666667,0.41840705280528045
265,67,33.2199999999995,5.3000000000001,0,86903,371,0.187514,0.977342,0.089853,0.9992159159906331,0.4182363333333334,0.4183663861386138
266,67,33.2399999999996,5.320000000000196,-652,398,372,0.18727,0.973682,0.092781,0.9958589277528219,0.417911,0.4183325643564355
267,67,33.2599999999996,5.340000000000199,536936130,133133,368,0.186172,0.971364,0.091317,0.9932506373363171,0.4162843333333333,0.4182854554455444
268,67,33.2799999999996,5.360000000000202,536936130,133133,426,0.186294,0.97173,0.092293,0.9937216135241298,0.4167723333333333,0.41825163366336626
269,67,33.2999999999996,5.380000000000198,0,86903,152,0.192211,0.974231,0.090219,0.9971010870734219,0.418887,0.4182421716171616
270,67,33.3199999999996,5.400000000000201,536936130,133133,0,0.192394,0.988139,0.062159,1.0086118558880814,0.4142306666666667,0.4181914389438943
271,67,33.3399999999996,5.420000000000197,536936130,133133,28,0.186782,0.976183,0.074786,0.9967014150732405,0.4125836666666667,0.41812439933993384
272,67,33.3599999999996,5.4400000000002,0,86903,526,0.186477,0.98027,0.046543,0.9989340294924385,0.40443,0.4179846831683167
273,67,33.3799999999996,5.460000000000196,-837,357,509,0.18788,0.98088,0.107055,1.0044327960719919,0.42527166666666666,0.41812741914191415
274,67,33.3999999999996,5.480000000000199,0,86903,523,0.183183,0.971059,0.106811,0.9939417400889249,0.420351,0.418064607260726
275,67,33.4199999999996,5.500000000000195,0,86903,521,0.185379,0.96441,0.094001,0.9865537034252114,0.41459666666666667,0.4180370264026401
276,67,33.4399999999996,5.5200000000001985,-1061,469,526,0.184586,0.97295,0.093635,0.9947216731935622,0.41705699999999996,0.4179615313531352
277,67,33.4599999999996,5.540000000000202,0,86903,537,0.184952,0.976915,0.088023,0.9981574064535113,0.41663,0.41794884818481837
278,67,33.4799999999996,5.560000000000198,-667,234,526,0.183366,0.972889,0.099796,0.9950353450470993,0.4186836666666667,0.41790254455445536
279,67,33.4999999999996,5.580000000000201,536936130,133133,548,0.191113,0.971608,0.090585,0.9943600588609742,0.4177686666666667,0.4178451683168316
280,67,33.5199999999996,5.600000000000197,0,86903,549,0.191174,0.987529,0.086681,1.0095913132936514,0.4217946666666667,0.41785221452145205
281,67,33.5399999999996,5.6200000000002,-663,312,545,0.190198,0.971547,0.096868,0.9947171768080614,0.41953766666666664,0.4178113465346534
282,67,33.5599999999996,5.640000000000196,536936130,133133,526,0.188063,0.976244,0.092354,0.9984734852869154,0.418887,0.41778618151815167
283,67,33.5799999999996,5.660000000000199,536884860,209577,475,0.185623,0.977403,0.093086,0.9992184575627093,0.418704,0.41777249174917475
284,67,33.5999999999996,5.680000000000202,0,86903,435,0.186172,0.976915,0.077348,0.9974996961969462,0.41347833333333334,0.4176990099009899
285,67,33.6199999999996,5.700000000000198,536936130,133133,417,0.185745,0.967643,0.111813,0.9916331617301833,0.4217336666666667,0.41768894389438926
286,67,33.6399999999996,5.720000000000201,536884860,209577,408,0.185684,0.976671,0.100223,0.9992044034260458,0.4208593333333333,0.4177092772277226
287,67,33.6599999999996,5.740000000000197,0,0,408,0.183,0.980514,0.09028,1.001522432397797,0.41793133333333327,0.4176798844884486
288,67,33.6799999999996,5.7600000000002005,-687,388,399,0.182939,0.979111,0.092537,1.0003440030364554,0.4181956666666667,0.41765109570957076
289,67,33.6999999999996,5.7800000000001965,0,86903,390,0.189344,0.971547,0.091073,0.994006546695745,0.4173213333333334,0.4176410297029701
290,67,33.7199999999996,5.8000000000002,0,86903,384,0.188612,0.977952,0.091134,1.0001349942902709,0.41923266666666675,0.41763619801980184
291,67,33.7399999999996,5.820000000000196,-668,402,377,0.18788,0.97234,0.09699,0.9950633296931407,0.41907,0.41764143234323414
292,67,33.7599999999996,5.840000000000199,0,86903,372,0.188307,0.970632,0.096441,0.9934217997175219,0.41846000000000005,0.41764686798679856
293,67,33.7799999999996,5.860000000000202,-690,266,370,0.187514,0.969351,0.096441,0.9920200239299608,0.4177686666666667,0.4176396204620461
294,67,33.7999999999996,5.880000000000198,536936130,133133,370,0.188246,0.975634,0.096197,0.9982745720897632,0.4200256666666667,0.41766297359735965
295,67,33.8199999999996,5.900000000000201,0,86903,371,0.1891,0.97417,0.099674,0.9973469332062941,0.4209813333333334,0.41768411221122104
296,67,33.8399999999996,5.920000000000197,-939,751,368,0.190564,0.974292,0.097539,0.997533656515408,0.4207983333333334,0.41770464686468634
297,67,33.8599999999996,5.9400000000002,536936130,133133,370,0.190747,0.973682,0.095221,0.9967487617117967,0.4198833333333334,0.4177255841584157
298,67,33.8799999999997,5.960000000000296,536936130,133133,360,0.191906,0.974048,0.096319,0.997434092509876,0.42075766666666664,0.4177620231023101
299,67,33.8999999999997,5.980000000000299,0,86903,362,0.189527,0.972767,0.096014,0.9956981511552586,0.4194360000000001,0.41778396699669956
300,67,33.9199999999997,6.000000000000302,536936130,133133,362,0.186843,0.969595,0.098454,0.9923295625899694,0.41829733333333335,0.41777732343234314
301,67,33.9399999999997,6.020000000000298,536936130,133133,469,0.190686,0.972401,0.099491,0.9959032656227209,0.4208593333333333,0.41779000660065996
302,67,33.9599999999997,6.040000000000301,0,86903,350,0.194163,0.97295,0.099796,0.9971410204604964,0.42230300000000004,0.41784456435643563
303,67,33.9799999999997,6.060000000000297,-602,16,-2,0.19642,0.978257,0.086193,1.0014972829209274,0.42029,0.41787456105610554
304,67,33.9999999999997,6.0800000000003,0,86903,0,0.182817,0.95831,0.149145,0.9869267159287968,0.4300906666666667,0.41799333993399335
305,67,34.0199999999997,6.100000000000296,0,86903,455,0.198311,0.973804,0.047519,0.9949269010826876,0.4065446666666667,0.4178719438943895
306,67,34.0399999999997,6.120000000000299,-801,380,502,0.183793,0.980453,0.083082,1.0009848004750124,0.4157760000000001,0.41779564356435656
307,67,34.0599999999997,6.140000000000295,0,86903,511,0.18361,0.971364,0.09394,0.9930183161432623,0.4163046666666666,0.4178113465346536
308,67,34.0799999999997,6.160000000000299,-954,397,518,0.187331,0.965447,0.102907,0.9888228678681537,0.4185616666666667,0.4177739009900992
309,67,34.0999999999997,6.180000000000302,536936130,133133,524,0.190137,0.962336,0.113155,0.9874445349942446,0.421876,0.41788664026402655
310,67,34.1199999999997,6.200000000000298,0,86903,536,0.192516,0.978562,0.097173,1.002042209704262,0.42275033333333334,0.41794220462046217
311,67,34.1399999999997,6.220000000000301,-765,354,534,0.191906,0.962702,0.108397,0.9876097221316728,0.42100166666666666,0.41799172937293744
312,67,34.1599999999997,6.240000000000297,536936130,133133,547,0.198311,0.973926,0.092171,0.9981756355662063,0.4214693333333333,0.4180199141914192
313,67,34.1799999999997,6.2600000000003,536936130,133133,566,0.19886,0.982344,0.090097,1.0063113351965187,0.423767,0.41807225742574267
314,67,34.1999999999997,6.280000000000296,234636,0,567,0.193675,0.978257,0.09821,1.0020688438296044,0.4233806666666666,0.41812439933993406
315,67,34.2199999999997,6.300000000000299,536936130,133133,544,0.194224,0.970205,0.100406,0.9945361074576428,0.42161166666666666,0.418139498349835
316,67,34.2399999999997,6.320000000000295,536936130,133133,469,0.190259,0.975817,0.103944,0.9996107540968134,0.42334000000000005,0.4181823795379539
317,67,34.2599999999997,6.340000000000298,0,86903,441,0.192821,0.973194,0.090829,0.9962612141993685,0.41894800000000004,0.418184594059406
318,67,34.2799999999997,6.360000000000301,-781,407,428,0.18849,0.975695,0.100284,0.9987823055005529,0.4214896666666667,0.41818962706270635
319,67,34.2999999999997,6.380000000000297,0,86903,411,0.190503,0.973621,0.091622,0.9963050915929317,0.418582,0.4181781518151816
320,67,34.3199999999997,6.400000000000301,0,86903,409,0.18605,0.98088,0.095648,1.002940036494705,0.4208593333333333,0.41815942904290443
321,67,34.3399999999997,6.420000000000297,-751,385,398,0.195932,0.962702,0.102053,0.9877243057842608,0.42022899999999996,0.41818479537953807
322,67,34.3599999999997,6.4400000000003,0,86903,393,0.196481,0.965935,0.099308,0.9907054488847833,0.4205746666666666,0.4181940561056107
323,67,34.3799999999997,6.460000000000296,-760,427,391,0.197884,0.974048,0.098393,0.9988036674987733,0.42344166666666666,0.4182699537953797
324,67,34.3999999999997,6.480000000000299,536936130,133133,381,0.19764,0.97295,0.099979,0.9978422082378555,0.42352300000000004,0.41832672607260746
325,67,34.4199999999997,6.500000000000302,0,86903,377,0.194163,0.97112,0.097844,0.9951616819919263,0.42104233333333335,0.4183510858085812
326,67,34.4399999999997,6.520000000000298,-709,384,368,0.190747,0.972279,0.100589,0.995906129497655,0.421205,0.41837866666666695
327,67,34.4599999999997,6.540000000000301,536936130,133133,367,0.193248,0.970632,0.100284,0.9947502950911852,0.42138800000000004,0.41840765676567687
328,67,34.4799999999997,6.560000000000297,536936130,133133,364,0.194529,0.971059,0.102114,0.9956025222537356,0.42256733333333335,0.4184424851485152
329,67,34.4999999999997,6.5800000000003,180,0,368,0.1952,0.972279,0.097966,0.9965073160780105,0.421815,0.4184722805280531
330,67,34.5199999999998,6.600000000000396,536936130,133133,366,0.195261,0.97295,0.099857,0.9973615097195199,0.4226893333333333,0.41851496039603986
331,67,34.5399999999998,6.620000000000399,536936130,133133,372,0.192821,0.971364,0.098698,0.9952232180475896,0.420961,0.4185413333333336
332,67,34.5599999999998,6.640000000000402,0,86903,367,0.194834,0.970815,0.100284,0.995238128508449,0.42197766666666664,0.41859105940594077
333,67,34.5799999999998,6.660000000000398,-740,308,363,0.193858,0.970571,0.099247,0.9947054625435612,0.42122533333333334,0.41863494719471966
334,67,34.5999999999998,6.680000000000401,0,86903,357,0.195017,0.971547,0.099857,0.9959450908293088,0.4221403333333334,0.4186901089108912
335,67,34.6199999999998,6.700000000000397,0,86903,361,0.195261,0.973011,0.10004,0.9974393544682303,0.42277066666666663,0.4187567458745875
336,67,34.6399999999998,6.7200000000004,-703,76,356,0.193492,0.972828,0.101138,0.9970267632776966,0.422486,0.4188199603960396
337,67,34.6599999999998,6.740000000000396,0,86903,434,0.193736,0.973377,0.099491,0.9974441743305738,0.4222013333333334,0.41887592739273927
338,67,34.6799999999998,6.7600000000003995,-678,278,0,0.194834,0.972828,0.102907,0.997469024977217,0.42352300000000004,0.4189530330033004
339,67,34.6999999999998,6.7800000000003955,536936130,133133,0,0.202947,0.989359,0.070577,1.0124227519267828,0.420961,0.41903678217821794
340,67,34.7199999999998,6.800000000000399,0,86903,-1,0.183305,0.953857,0.162626,0.9848305008223496,0.43326266666666663,0.4192924587458746
341,67,34.7399999999998,6.820000000000402,-764,496,541,0.199104,0.98149,0.088938,1.005422792043228,0.4231773333333333,0.41927132013201324
342,67,34.7599999999998,6.840000000000398,536936130,133133,496,0.195444,0.985638,0.109251,1.010750416859177,0.43011099999999997,0.41939593729372937
343,67,34.7799999999998,6.860000000000401,536884860,209577,508,0.18605,0.980941,0.088877,1.002376660297914,0.41862266666666664,0.41942935643564355
344,67,34.7999999999998,6.880000000000397,65558,0,518,0.190747,0.964654,0.106445,0.9890764862992144,0.4206153333333333,0.41947304290429044
345,67,34.8199999999998,6.9000000000004,536936130,133133,515,0.188795,0.959408,0.119072,0.9850306612857288,0.42242500000000005,0.41955900660066
346,67,34.8399999999998,6.920000000000396,-812,493,523,0.192333,0.977708,0.09638,1.0010964092199113,0.42214033333333334,0.41960591419141896
347,67,34.8599999999998,6.940000000000399,0,86903,522,0.193126,0.963312,0.105957,0.988177386438791,0.42079833333333333,0.41965564026402624
348,67,34.8799999999998,6.960000000000395,-797,562,540,0.196298,0.964715,0.097539,0.9893036907593138,0.41951733333333335,0.41966308910891065
349,67,34.8999999999998,6.980000000000398,0,86903,553,0.195566,0.978562,0.101321,1.0030431661902692,0.4251496666666667,0.41972549834983475
350,67,34.9199999999998,7.0000000000004015,0,86903,548,0.195444,0.968741,0.10431,0.9937494947505634,0.42283166666666666,0.4197772376237621
351,67,34.9399999999998,7.0200000000003975,-730,439,510,0.19459,0.973438,0.099918,0.9977125912145242,0.4226486666666667,0.41983783498349814
352,67,34.9599999999998,7.040000000000401,0,86903,468,0.186599,0.972767,0.111386,0.9967455362759344,0.423584,0.4199382937293728
353,67,34.9799999999998,7.060000000000397,-712,466,425,0.188856,0.973926,0.100589,0.9971542454068979,0.4211236666666667,0.4199411122112209
354,67,34.9999999999998,7.0800000000004,536936130,133133,410,0.198555,0.96746,0.106567,0.9933576722983519,0.424194,0.4199670825082506
355,67,35.0199999999998,7.100000000000396,0,86903,408,0.189405,0.974475,0.099064,0.9976419476675988,0.4209813333333334,0.4199976831683166
356,67,35.0399999999998,7.120000000000399,-772,409,400,0.190503,0.973926,0.100162,0.9974245198154094,0.42153033333333334,0.4200570726072605
357,67,35.0599999999998,7.140000000000402,536936130,133133,394,0.194041,0.967277,0.105225,0.9921436413317378,0.422181,0.42011001980198004
358,67,35.0799999999998,7.160000000000398,536936130,133133,391,0.194468,0.966118,0.101565,0.9907155203048956,0.420717,0.42014001650165006
359,67,35.0999999999998,7.180000000000401,536936130,133133,386,0.193553,0.976305,0.100223,1.0003393756935692,0.42336033333333334,0.42018511221122107
360,67,35.1199999999998,7.200000000000397,536936130,133133,374,0.193553,0.972828,0.10065,0.996989219547032,0.4223436666666667,0.420244904290429
361,67,35.1399999999998,7.2200000000004,0,86903,371,0.188917,0.973926,0.101016,0.9972089643705575,0.4212863333333334,0.4203008712871286
362,67,35.1599999999999,7.240000000000496,0,86903,368,0.191113,0.973804,0.101443,0.9975515482590361,0.42212,0.4203505973597359
363,67,35.1799999999999,7.260000000000499,536936130,133133,366,0.191601,0.972218,0.100894,0.9960413555475496,0.421571,0.42040233663366333
364,67,35.1999999999999,7.280000000000502,234636,0,366,0.191906,0.971974,0.10187,0.9959612775665528,0.42191666666666666,0.42045085478547845
365,67,35.2199999999999,7.300000000000498,0,86903,367,0.193431,0.972767,0.100955,0.996936858619943,0.4223843333333333,0.42049474257425734
366,67,35.2399999999999,7.320000000000501,-855,402,362,0.193248,0.97356,0.099796,0.9975585720748431,0.4222013333333334,0.4205339999999999
367,67,35.2599999999999,7.340000000000497,0,86903,363,0.191723,0.975695,0.098454,0.9992155082213245,0.42195733333333335,0.42057406270627057
368,67,35.2799999999999,7.3600000000005,0,86903,364,0.191113,0.970632,0.098088,0.9941186618995743,0.4199443333333333,0.420610300330033
369,67,35.2999999999999,7.380000000000496,1075052540,989857730,373,0.19215,0.970632,0.098637,0.9943728474234401,0.42047300000000004,0.42064694059405944
370,67,35.3199999999999,7.4000000000004995,0,86903,375,0.19154,0.971791,0.097539,0.9952784413429239,0.42029,0.4206608316831684
371,67,35.3399999999999,7.4200000000004955,-811,584,372,0.190686,0.973865,0.096136,0.9970036706637544,0.42022899999999996,0.4207202211221123
372,67,35.3599999999999,7.440000000000499,0,86903,367,0.191967,0.976366,0.096807,0.999756715553339,0.4217133333333334,0.42081061386138635
373,67,35.3799999999999,7.460000000000502,0,86903,365,0.19337,0.977037,0.095465,1.0005532581996823,0.4219573333333333,0.4209841518151817
374,67,35.3999999999999,7.480000000000498,-897,422,360,0.19154,0.975756,0.098881,0.9992821399870009,0.42205899999999996,0.4209523432343235
375,67,35.4199999999999,7.500000000000501,536936130,133133,363,0.193187,0.971974,0.096929,0.9957157750512945,0.42069666666666666,0.4209557656765677
376,67,35.4399999999999,7.520000000000497,0,86903,454,0.192516,0.970754,0.099613,0.9946599863978645,0.420961,0.42101877887788786
377,67,35.4599999999999,7.5400000000005,0,86903,0,0.195566,0.973377,0.093696,0.9972400838820109,0.4208796666666667,0.4210566270627064
378,67,35.4799999999999,7.560000000000496,0,86903,0,0.197091,0.984784,0.072712,1.006941618903996,0.41819566666666663,0.4210721287128714
379,67,35.4999999999999,7.580000000000499,536936130,133133,375,0.192821,0.968253,0.088694,0.9912418653820065,0.4165893333333333,0.42105139273927406
380,67,35.5199999999999,7.600000000000495,0,86903,544,0.195261,0.972096,0.054168,0.9929912706368571,0.407175,0.4209465049504952
381,67,35.5399999999999,7.620000000000498,-952,489,508,0.193187,0.982832,0.10126,1.0067440314166258,0.4257596666666667,0.42098576237623775
382,67,35.5599999999999,7.6400000000005015,0,86903,520,0.188612,0.971181,0.09577,0.9939511628872919,0.418521,0.42097569636963705
383,67,35.5799999999999,7.6600000000004975,0,86903,517,0.180133,0.961848,0.116693,0.9855032871797029,0.41955799999999993,0.4209823399339935
384,67,35.5999999999999,7.680000000000501,-945,352,529,0.189344,0.981978,0.092049,1.0042932645502507,0.4211236666666667,0.421006297029703
385,67,35.6199999999999,7.700000000000497,0,86903,535,0.189405,0.989359,0.092171,1.0115339728091193,0.423645,0.4211069570957096
386,67,35.6399999999999,7.7200000000005,-764,738,528,0.189405,0.989359,0.092171,1.0115339728091193,0.423645,0.42112588118811883
387,67,35.6599999999999,7.740000000000496,0,86903,542,0.198067,0.976732,0.096868,1.001308816368357,0.423889,0.4211558778877889
388,67,35.6799999999999,7.760000000000499,0,86903,546,0.196237,0.978623,0.092415,1.002373417705697,0.422425,0.4212003696369638
389,67,35.6999999999999,7.780000000000502,-779,565,527,0.187087,0.966057,0.102724,0.9893532700678763,0.41862266666666675,0.42120459735973603
390,67,35.7199999999999,7.800000000000498,536936130,133133,507,0.184647,0.96685,0.102358,0.9896315462196019,0.41795166666666667,0.42121083828382844
391,67,35.7399999999999,7.820000000000501,0,86903,470,0.184464,0.967399,0.110166,0.990971412328832,0.4206763333333334,0.42122513201320133
392,67,35.7599999999999,7.840000000000497,0,86903,439,0.186172,0.977891,0.105652,1.001046036188646,0.4232383333333334,0.42126640264026405
393,67,35.7799999999999,7.8600000000005,0,86903,414,0.190076,0.97356,0.092415,0.9962371663419308,0.4186836666666666,0.42126861716171615
394,67,35.8,7.880000000000596,536936190,133133,405,0.18178,0.980758,0.095099,1.0019850511684294,0.41921233333333335,0.42128291089108916
395,67,35.82,7.900000000000599,0,86903,403,0.184647,0.976671,0.094733,0.9984763883733054,0.4186836666666667,0.4212696237623763
396,67,35.84,7.920000000000602,-792,426,397,0.1891,0.969046,0.100894,0.9924658983320283,0.41968,0.42125673927392754
397,67,35.86,7.940000000000598,536936130,133133,392,0.190198,0.975512,0.094367,0.9983506758834794,0.4200256666666667,0.4212490891089109
398,67,35.88,7.960000000000601,0,86903,387,0.18727,0.977403,0.093208,0.9995370971469744,0.4192936666666667,0.4212432508250825
399,67,35.9,7.980000000000597,536936130,133133,371,0.184159,0.971059,0.099674,0.9933806043194119,0.41829733333333335,0.4212188910891089
400,67,35.92,8.0000000000006,536936130,133133,370,0.185257,0.973987,0.096929,0.9961757190671735,0.4187243333333334,0.42121184488448854
401,67,35.94,8.020000000000596,-827,402,370,0.18544,0.974292,0.095648,0.9963841803079774,0.41846,0.42121345544554467
402,67,35.96,8.0400000000006,0,86903,366,0.189649,0.972828,0.096807,0.9958577488948911,0.4197613333333334,0.42120258415841594
403,67,35.98,8.060000000000596,0,0,366,0.188612,0.972828,0.097417,0.9957202800068903,0.419619,0.4211760099009902
404,67,36.0,8.080000000000599,-884,309,367,0.18727,0.974719,0.095343,0.9971145719073611,0.41911066666666663,0.42116433333333353
405,67,36.02,8.100000000000602,536936130,133133,367,0.184708,0.975268,0.092903,0.9969431701441162,0.4176263333333334,0.42104092409240934
406,67,36.04,8.120000000000598,0,0,360,0.184647,0.973987,0.092659,0.9956560053848921,0.41709766666666676,0.4211454092409242
407,67,36.06,8.140000000000601,0,86903,363,0.187331,0.970693,0.095587,0.9932143164388038,0.41787033333333334,0.4211661452145215
408,67,36.08,8.160000000000597,0,86903,376,0.189039,0.972218,0.09272,0.9947565438060711,0.4179923333333333,0.4211828547854786
409,67,36.1,8.1800000000006,536936130,133133,368,0.18666,0.970388,0.09577,0.9928074934467407,0.417606,0.42117339273927396
410,67,36.12,8.200000000000596,0,86903,370,0.186355,0.970388,0.09638,0.9928092268754356,0.41770766666666664,0.4211321221122111
411,67,36.14,8.2200000000006,-465,834,359,0.186416,0.971852,0.095465,0.9941633674527542,0.417911,0.42108420792079193
412,67,36.16,8.240000000000595,0,0,363,0.186477,0.972645,0.093879,0.9947990923774509,0.417667,0.42105119141914177
413,67,36.18,8.260000000000598,0,86903,361,0.184098,0.974902,0.097661,0.9969271057248871,0.418887,0.42102562376237607
414,67,36.2,8.280000000000602,536936130,133133,446,0.18422,0.973804,0.096563,0.9957688746817708,0.41819566666666663,0.4209704620462046
415,67,36.22,8.300000000000598,536936130,133133,424,0.185745,0.974719,0.096319,0.996923108242055,0.41892766666666664,0.4209263729372937
416,67,36.24,8.3200000000006,0,86903,-1,0.186965,0.975634,0.092537,0.997687681366268,0.4183786666666667,0.4208943630363036
417,67,36.26,8.340000000000597,536936130,133133,0,0.190076,0.983137,0.079239,1.0044730288395005,0.417484,0.42083638283828384
418,67,36.28,8.3600000000006,116621,536878210,347,0.178242,0.960201,0.132248,0.9855179878972274,0.42356366666666667,0.4208820825082509
419,67,36.3,8.380000000000596,536936130,133133,503,0.194102,0.976061,0.073383,0.9978756068839442,0.41451533333333335,0.4208130297029703
420,67,36.32,8.400000000000599,0,86903,500,0.18544,0.989847,0.064721,1.009145125762395,0.413336,0.42076108910891097
421,67,36.34,8.420000000000602,116621,536878210,478,0.173545,0.970754,0.122427,0.9937150325269313,0.422242,0.42077477887788783
422,67,36.36,8.440000000000598,536936130,133133,489,0.18117,0.95465,0.112118,0.9781357969750417,0.4159793333333333,0.420732702970297
423,67,36.38,8.460000000000601,536936130,133133,498,0.188612,0.979904,0.09577,1.0024760489208708,0.4214286666666666,0.42074115841584153
424,67,36.4,8.480000000000597,116621,536878210,500,0.188795,0.984479,0.086498,1.0061433086146325,0.41992399999999996,0.4207063300330033
425,67,36.42,8.5000000000006,0,86903,496,0.184464,0.977647,0.096441,0.999560648678208,0.41951733333333335,0.42066666996699675
426,67,36.4400000000001,8.520000000000696,0,86903,500,0.184342,0.973865,0.098698,0.9960603929446246,0.41896833333333333,0.4206461353135314
427,67,36.4600000000001,8.540000000000699,-713,594,499,0.182512,0.971974,0.103639,0.9943767541234058,0.419375,0.4206280165016501
428,67,36.4800000000001,8.560000000000702,0,86903,493,0.181841,0.973072,0.108336,0.9958272718503949,0.42108300000000004,0.42062499669966996
429,67,36.5000000000001,8.580000000000698,-785,468,479,0.181963,0.973987,0.102053,0.9960803302680965,0.4193343333333333,0.42059298679867985
430,67,36.5200000000001,8.600000000000701,116621,536878210,458,0.185257,0.980819,0.095709,1.002739387623225,0.420595,0.42058090759075906
431,67,36.5400000000001,8.620000000000697,0,86903,447,0.183854,0.980087,0.103334,1.0025221875055934,0.42242500000000005,0.42057829042904293
432,67,36.5600000000001,8.6400000000007,-695,417,420,0.18117,0.974048,0.095404,0.9953361233372373,0.416874,0.42053782508250825
433,67,36.5800000000001,8.660000000000696,116621,536878210,428,0.181414,0.977586,0.092415,0.9985619455081391,0.41713833333333333,0.42048991089108906
434,67,36.6000000000001,8.6800000000007,536936130,133133,415,0.181597,0.97844,0.095343,0.9997062526852576,0.41846,0.4204625313531354
435,67,36.6200000000001,8.700000000000696,0,86903,411,0.188978,0.970815,0.093452,0.9934423611931393,0.4177483333333334,0.42041904620462056
436,67,36.6400000000001,8.720000000000699,116621,536878210,399,0.187941,0.975268,0.096502,0.9978888351459796,0.4199036666666667,0.4203906600660067
437,67,36.6600000000001,8.740000000000702,536884860,209577,391,0.183122,0.967765,0.100284,0.9900301221503313,0.417057,0.42033690759075915
438,67,36.6800000000001,8.760000000000698,65558,0,389,0.181353,0.970266,0.099186,0.9920397592642142,0.416935,0.42028476567656775
439,67,36.7000000000001,8.780000000000701,116621,536878210,386,0.181658,0.97051,0.102846,0.9927066982649003,0.41833800000000004,0.42023342904290445
440,67,36.7200000000001,8.800000000000697,0,86903,388,0.183793,0.972889,0.099308,0.9950653003868641,0.41866333333333333,0.4202106798679868
441,67,36.7400000000001,8.8200000000007,0,86903,382,0.187026,0.973621,0.098271,0.9962799635433808,0.4196393333333333,0.42007579537953804
442,67,36.7600000000001,8.840000000000696,536936130,133133,378,0.186538,0.977769,0.097722,1.000189098165442,0.4206763333333334,0.4200510330033004
443,67,36.7800000000001,8.8600000000007,0,86903,380,0.184098,0.978379,0.094245,0.9999998306349857,0.4189073333333333,0.41994010561056117
444,67,36.8000000000001,8.880000000000695,-544,1226,387,0.182512,0.976366,0.093086,0.9976302919899735,0.4173213333333334,0.41992722112211234
445,67,36.8200000000001,8.900000000000698,116621,536878210,382,0.182268,0.969534,0.100162,0.991589747437921,0.4173213333333334,0.41989460726072614
446,67,36.8400000000001,8.920000000000702,0,86903,379,0.186172,0.967948,0.098637,0.9906122359717752,0.4175856666666667,0.4198466930693071
447,67,36.8600000000001,8.940000000000698,-397,688,373,0.185806,0.976061,0.097478,0.9983591066550151,0.41978166666666666,0.41982333993399357
448,67,36.8800000000001,8.9600000000007,116621,536878210,374,0.186294,0.975817,0.096075,0.9980754868996634,0.41939533333333334,0.41980944884488464
449,67,36.9000000000001,8.980000000000697,536936130,133133,368,0.187209,0.975817,0.09577,0.9982173711521954,0.4195986666666667,0.4198102541254127
450,67,36.9200000000001,9.0000000000007,0,86903,372,0.183061,0.975024,0.095282,0.9966252002739043,0.417789,0.41973737623762397
451,67,36.9400000000001,9.020000000000696,116621,536878210,484,0.18361,0.972462,0.09882,0.9945654156182991,0.4182973333333333,0.4196924818481851
452,67,36.9600000000001,9.040000000000699,536936130,133133,0,0.18727,0.984906,0.077104,1.0055122617611383,0.41642666666666667,0.41963087788778897
453,67,36.9800000000001,9.060000000000702,536936130,133133,0,0.174826,0.956663,0.127185,0.9807875662293033,0.41955800000000004,0.4195910165016504
454,67,37.0000000000001,9.080000000000698,116621,536878210,226,0.177632,0.952027,0.139202,0.9784097980687846,0.42295366666666667,0.41960913531353156
455,67,37.0200000000001,9.100000000000701,0,86903,511,0.186599,0.988383,0.099918,1.0107936229587127,0.42496666666666666,0.4196167854785481
456,67,37.0400000000001,9.120000000000697,0,86903,493,0.177449,0.98637,0.058499,1.0039103832026044,0.4074393333333333,0.41948270627062734
457,67,37.0600000000001,9.1400000000007,536884860,209577,481,0.176229,0.9516,0.124379,0.975740414291629,0.41740266666666664,0.41944183828382864
458,67,37.0800000000002,9.160000000000796,0,86903,489,0.179218,0.946659,0.120536,0.970984696635843,0.415471,0.4193754026402643
459,67,37.1000000000002,9.180000000000799,-786,452,502,0.180865,0.956541,0.106323,0.9792790272618933,0.41457633333333327,0.4193146039603962
460,67,37.1200000000002,9.200000000000802,116621,536878210,510,0.185074,0.98576,0.087352,1.006779784749376,0.41939533333333334,0.41927534653465365
461,67,37.1400000000002,9.220000000000798,0,86903,499,0.181658,0.972035,0.099857,0.9938928969652615,0.41785000000000005,0.4192308547854788
462,67,37.1600000000002,9.240000000000801,-761,755,522,0.183976,0.983198,0.092842,1.0045621497667527,0.42000533333333334,0.4192181716171619
463,67,37.1800000000002,9.260000000000797,116621,536878210,522,0.18117,0.982344,0.094916,1.0034098615680433,0.41947666666666666,0.4191920000000001
464,67,37.2000000000002,9.2800000000008,1074266110,989857280,509,0.179706,0.974475,0.101382,0.9960793552649307,0.418521,0.41916180198019815
465,67,37.2200000000002,9.300000000000797,1074266110,989857280,487,0.180255,0.968863,0.102297,0.9907835555776046,0.4171383333333334,0.4191144917491751
466,67,37.2400000000002,9.3200000000008,116621,536878210,449,0.176595,0.974109,0.103517,0.995384301260071,0.4180736666666667,0.4190718118811882
467,67,37.2600000000002,9.340000000000796,-614,570,435,0.177449,0.980514,0.105042,1.0019629102721317,0.4210016666666667,0.41905993399339947
468,67,37.2800000000002,9.360000000000799,0,86903,423,0.186721,0.974292,0.114619,0.9986226255528162,0.4252106666666667,0.4190921452145215
469,67,37.3000000000002,9.380000000000802,-536,456,416,0.183793,0.973987,0.095038,0.9957222325839672,0.417606,0.41906899339933995
470,67,37.3200000000002,9.400000000000798,0,86903,414,0.171532,0.989908,0.089487,1.0086371987275702,0.4169756666666667,0.41903436633663366
471,67,37.3400000000002,9.420000000000801,0,86903,403,0.180804,0.974719,0.096685,0.9960498002620151,0.41740266666666664,0.4190057788778878
472,67,37.3600000000002,9.440000000000797,536936130,133133,394,0.181109,0.983015,0.089853,1.003589817462792,0.4179923333333333,0.41898363366336633
473,67,37.3800000000002,9.4600000000008,0,86903,395,0.178425,0.982527,0.091073,1.0027407828960584,0.41734166666666667,0.4189403498349835
474,67,37.4000000000002,9.480000000000796,-566,541,383,0.179889,0.978013,0.094855,0.9989329064131385,0.41758566666666663,0.41889706600660065
475,67,37.4200000000002,9.5000000000008,116621,536878210,381,0.178181,0.972279,0.095953,0.9931172643806974,0.415471,0.41883183828382836
476,67,37.4400000000002,9.520000000000795,0,86903,379,0.173972,0.973804,0.0976,0.99402527493017,0.4151253333333333,0.41877667656765677
477,67,37.4600000000002,9.540000000000799,-666,471,378,0.175802,0.973865,0.097112,0.9943591514000362,0.41559300000000005,0.4187235280528053
478,67,37.4800000000002,9.560000000000802,116621,536878210,376,0.176473,0.974719,0.096319,0.995237257366805,0.415837,0.4186736006600661
479,67,37.5000000000002,9.580000000000798,536936130,133133,387,0.177144,0.974841,0.093086,0.9951683151170961,0.4150236666666667,0.41864219471947206
480,67,37.5200000000002,9.6000000000008,0,86903,387,0.177144,0.977098,0.090341,0.9971268698721342,0.414861,0.41862508250825087
481,67,37.5400000000002,9.620000000000797,116621,536878210,378,0.176229,0.978562,0.091012,0.9984605312324569,0.41526766666666676,0.4187052079207921
482,67,37.5600000000002,9.6400000000008,536936130,133133,373,0.179218,0.978196,0.089548,0.998501552449469,0.41565399999999997,0.41860515181518154
483,67,37.5800000000002,9.660000000000796,536936130,133133,373,0.179462,0.978013,0.089182,0.9983333444982192,0.41555233333333336,0.4185757590759075
484,67,37.6000000000002,9.680000000000799,536936130,133133,373,0.178791,0.975329,0.08967,0.9956272338691826,0.41459666666666667,0.41852663696369635
485,67,37.6200000000002,9.700000000000802,0,86903,377,0.177815,0.979599,0.088938,0.9995710794485803,0.41545066666666663,0.41847046864686455
486,67,37.6400000000002,9.720000000000798,0,86903,482,0.173911,0.979538,0.091134,0.999022089506033,0.414861,0.41838349834983496
487,67,37.6600000000002,9.740000000000801,536936130,133133,1,0.183061,0.988932,0.064904,1.0078245678494844,0.412299,0.41827116171617146
488,67,37.6800000000002,9.760000000000797,0,86903,0,0.170617,0.961909,0.134627,0.9861559278831112,0.4223843333333333,0.4182562640264026
489,67,37.7000000000002,9.7800000000008,-692,604,229,0.17202,0.962092,0.12261,0.9850102075430487,0.4189073333333333,0.41822143564356434
490,67,37.7200000000003,9.800000000000896,116621,536878210,533,0.177083,0.982649,0.119987,1.005661138882775,0.42657300000000004,0.4183001518151815
491,67,37.7400000000003,9.8200000000009,0,86903,509,0.172508,0.982466,0.075579,1.000355255127397,0.4101843333333333,0.41822324752475243
492,67,37.7600000000003,9.840000000000902,-842,496,514,0.171837,0.967826,0.098759,0.9879111604420713,0.4128073333333333,0.4181453366336633
493,67,37.7800000000003,9.860000000000898,116621,536878210,517,0.170129,0.964349,0.111752,0.9855969662828716,0.41541000000000006,0.4180678283828383
494,67,37.8000000000003,9.880000000000901,536936130,133133,524,0.169763,0.96563,0.104798,0.9860240331112625,0.413397,0.4180154851485149
495,67,37.8200000000003,9.900000000000897,0,86903,534,0.174338,0.974841,0.095404,0.9948922739377365,0.414861,0.4179724026402641
496,67,37.8400000000003,9.9200000000009,116621,536878210,535,0.177754,0.967338,0.091988,0.9878264437156965,0.41236,0.417909792079208
497,67,37.8600000000003,9.940000000000897,536936130,133133,556,0.183427,0.99064,0.079849,1.0106378860551388,0.417972,0.41789288118811885
498,67,37.8800000000003,9.9600000000009,536936130,133133,553,0.180621,0.985516,0.083875,1.005435600882523,0.41667066666666663,0.4178596633663368
499,67,37.9000000000003,9.980000000000896,-686,408,541,0.177388,0.978013,0.091195,0.9981445079436144,0.41553199999999996,0.41782241914191437
500,67,37.9200000000003,10.000000000000899,0,86903,503,0.175436,0.978135,0.089548,0.9977698695716363,0.41437299999999994,0.4177835643564357
501,67,37.9400000000003,10.020000000000902,0,86903,446,0.171776,0.974475,0.098271,0.9943669892157523,0.41484066666666664,0.41774511221122124
502,67,37.9600000000003,10.040000000000898,-690,393,422,0.168787,0.977952,0.093757,0.996829745102944,0.4134986666666667,0.4176959900990101
503,67,37.9800000000003,10.060000000000901,0,86903,406,0.175802,0.973133,0.090402,0.9930089125969616,0.41311233333333336,0.41763015841584167
504,67,38.0000000000003,10.080000000000897,-692,394,412,0.174643,0.974353,0.0854,0.9935578020719278,0.4114653333333333,0.41754942904290426
505,67,38.0200000000003,10.1000000000009,116621,536878210,404,0.171715,0.980392,0.088267,0.9992224868256319,0.41345800000000005,0.4174934620462046
506,67,38.0400000000003,10.120000000000896,0,86903,396,0.174155,0.969107,0.092598,0.9889755968061094,0.41195333333333334,0.41743729372937294
507,67,38.0600000000003,10.1400000000009,-635,445,392,0.175741,0.982649,0.087535,1.0020710216880837,0.41530833333333333,0.4174195775577558
508,67,38.0800000000003,10.160000000000895,116621,536878210,387,0.176961,0.982161,0.086864,1.0017488607121048,0.4153286666666667,0.41739441254125415
509,67,38.1000000000003,10.180000000000899,536936130,133133,383,0.17629,0.978257,0.086925,0.9978080365350843,0.41382399999999997,0.41735314191419143
510,67,38.1200000000003,10.200000000000902,0,86903,379,0.172813,0.975024,0.089853,0.994288537173189,0.41256333333333334,0.4173032145214522
511,67,38.1400000000003,10.220000000000898,116621,536878210,376,0.173484,0.975939,0.090463,0.9953578172426235,0.41329533333333335,0.41725952805280525
512,67,38.1600000000003,10.2400000000009,536936130,133133,365,0.177571,0.973743,0.093635,0.9942205003493944,0.41498299999999994,0.41723053795379544
513,67,38.1800000000003,10.260000000000897,536936130,133133,370,0.1769,0.974292,0.09394,0.9946673991159055,0.41504399999999997,0.41720456765676567
514,67,38.2000000000003,10.2800000000009,536936130,133133,375,0.177022,0.975085,0.093391,0.995414197502728,0.415166,0.41716772607260727
515,67,38.2200000000003,10.300000000000896,0,86903,380,0.178181,0.977891,0.08845,0.9979191746539395,0.41484066666666664,0.41713450825082515
516,67,38.2400000000003,10.3200000000009,0,86903,372,0.176534,0.978135,0.090402,0.9980405066854752,0.4150236666666667,0.4170958547854786
517,67,38.2600000000003,10.340000000000902,536936130,133133,364,0.175741,0.974902,0.090646,0.9947539927042264,0.41376300000000005,0.41705015511551174
518,67,38.2800000000003,10.360000000000898,0,86903,367,0.174521,0.975817,0.090707,0.9954416892912412,0.4136816666666667,0.41701250825082525
519,67,38.3000000000003,10.380000000000901,-582,162,365,0.174887,0.975146,0.091683,0.9949376646674906,0.4139053333333333,0.41691688118811887
520,67,38.3200000000003,10.400000000000897,116621,536878210,404,0.177388,0.975451,0.090341,0.99555645356052,0.41439333333333334,0.4169156732673267
521,67,38.3400000000003,10.4200000000009,0,86903,293,0.177449,0.97722,0.092171,0.9974680793098093,0.41561333333333333,0.4169382211221123
522,67,38.3600000000004,10.440000000000996,-552,-37,0,0.1708,0.971242,0.100162,0.9912194957767931,0.41406800000000005,0.4168572904290429
523,67,38.3800000000004,10.460000000001,116621,536878210,0,0.168482,0.959347,0.145241,0.9847983543924106,0.42435666666666666,0.41694023432343247
524,67,38.4000000000004,10.480000000000995,536936130,133133,527,0.181109,0.9699,0.089121,0.9906810952683007,0.41337666666666667,0.41686051155115517
525,67,38.4200000000004,10.500000000000998,0,86903,499,0.177205,0.986187,0.102846,1.0072456059521928,0.4220793333333333,0.4168818514851486
526,67,38.4400000000004,10.520000000001001,116621,536878210,505,0.17385,0.974719,0.091805,0.994348585500075,0.41345799999999994,0.4168218580858087
527,67,38.4600000000004,10.540000000000997,536936190,133133,511,0.178242,0.966972,0.104127,0.9887605834968343,0.41644700000000007,0.416796894389439
528,67,38.4800000000004,10.560000000001,0,86903,512,0.17751,0.965386,0.104737,0.9871422229167386,0.41587766666666665,0.4167622673267327
529,67,38.5000000000004,10.580000000000997,536936130,133133,523,0.181597,0.972462,0.094306,0.9937572306599838,0.4161216666666667,0.4167131452145215
530,67,38.5200000000004,10.600000000001,0,86903,522,0.181902,0.970205,0.099552,0.9921172714618972,0.4172196666666667,0.41669220792079215
531,67,38.5400000000004,10.620000000000996,0,86863,533,0.183488,0.966667,0.094794,0.9884830992328599,0.41498300000000005,0.4166366435643564
532,67,38.5600000000004,10.640000000000999,536936130,133133,550,0.184952,0.986736,0.086376,1.007628894671049,0.4193546666666667,0.4166062442244224
533,67,38.5800000000004,10.660000000001002,0,86903,551,0.182817,0.976976,0.094855,0.9984496136961544,0.418216,0.4166195313531353
534,67,38.6000000000004,10.680000000000998,-636,460,528,0.184769,0.974597,0.094489,0.9964472223309171,0.4179516666666667,0.4166275841584158
535,67,38.6200000000004,10.700000000001001,116621,536878210,473,0.181719,0.976976,0.092537,0.9980315605761172,0.41707733333333336,0.416613894389439
536,67,38.6400000000004,10.720000000000997,0,86903,427,0.177876,0.973438,0.10248,0.9948485118951529,0.41793133333333327,0.41661570627062716
537,67,38.6600000000004,10.740000000001,-696,429,409,0.179645,0.975573,0.108397,0.9978802102271594,0.42120500000000005,0.416628590759076
538,67,38.6800000000004,10.760000000000996,116621,536878210,403,0.179828,0.975207,0.081923,0.9950267234411345,0.4123193333333333,0.4165816831683169
539,67,38.7000000000004,10.780000000001,536936130,133133,400,0.178242,0.976915,0.095404,0.9976146806282473,0.4168536666666667,0.4165808778877889
540,67,38.7200000000004,10.800000000000995,0,86903,397,0.17934,0.973377,0.099796,0.9947788002088707,0.4175043333333333,0.41657262376237636
541,67,38.7400000000004,10.820000000000999,116621,536878210,385,0.185196,0.965569,0.09699,0.9879413506261392,0.41591833333333333,0.4165454455445545
542,67,38.7600000000004,10.840000000001002,536936190,133133,385,0.186416,0.980209,0.092232,1.0020316115577392,0.419619,0.41654524422442235
543,67,38.7800000000004,10.860000000000998,0,86903,384,0.186111,0.978501,0.093025,1.000377509716707,0.4192123333333333,0.4165307491749175
544,67,38.8000000000004,10.880000000001,-699,329,374,0.186538,0.975817,0.092781,0.997809379036898,0.4183786666666667,0.41652551485148515
545,67,38.8200000000004,10.900000000000997,0,86903,376,0.181658,0.973316,0.095526,0.9947205042101022,0.41683333333333333,0.41652068316831686
546,67,38.8400000000004,10.920000000001,0,86903,372,0.183854,0.972584,0.0976,0.9946093154460198,0.41801266666666664,0.41652752805280524
547,67,38.8600000000004,10.940000000000996,536936130,133133,370,0.18666,0.972584,0.098027,0.9951737965727394,0.41909033333333334,0.4165424257425743
548,67,38.8800000000004,10.960000000001,0,86903,372,0.187148,0.973011,0.098271,0.9957067688160004,0.41947666666666666,0.4165394059405942
549,67,38.9000000000004,10.980000000000995,-507,-56,377,0.185806,0.973682,0.09638,0.995926508915191,0.41862266666666664,0.4165317557755776
550,67,38.9200000000004,11.000000000000998,116621,536878210,376,0.183549,0.975085,0.097783,0.9970168041286968,0.41880566666666663,0.4165239042904291
551,67,38.9400000000004,11.020000000001001,0,86903,372,0.185074,0.972767,0.098454,0.9950985940503585,0.41876500000000005,0.41653356765676575
552,67,38.9600000000004,11.040000000000997,-749,620,367,0.185013,0.974109,0.095953,0.9961551747890486,0.41835833333333333,0.4165341716171617
553,67,38.9800000000004,11.060000000001,116621,536878210,364,0.183854,0.975146,0.095404,0.9969021706506612,0.4181346666666667,0.41655108250825085
554,67,39.0000000000005,11.080000000001096,536936130,133133,367,0.184159,0.974658,0.095099,0.9964519928456163,0.417972,0.4165353795379537
555,67,39.0200000000005,11.1000000000011,0,86903,421,0.184037,0.974841,0.097234,0.9968144478316915,0.418704,0.416493303630363
556,67,39.0400000000005,11.120000000001095,116621,536878210,156,0.188673,0.976854,0.098759,0.9997972686129925,0.4214286666666667,0.41645827392739265
557,67,39.0600000000005,11.140000000001098,536936130,133133,0,0.179645,0.969778,0.102785,0.9916180976232735,0.41740266666666664,0.4165569207920792
558,67,39.0800000000005,11.160000000001101,536936130,133133,-1,0.175375,0.957334,0.156404,0.9857519918300952,0.4297043333333333,0.4166787194719472
559,67,39.1000000000005,11.180000000001098,536936130,133133,509,0.184159,0.965508,0.106018,0.9886152192177703,0.41856166666666667,0.41670932013201323
560,67,39.1200000000005,11.2000000000011,0,86903,509,0.184525,0.990213,0.102663,1.0124776306482035,0.42580033333333334,0.4168204488448845
561,67,39.1400000000005,11.220000000001097,0,86903,512,0.179157,0.972706,0.101382,0.9942497186366209,0.4177483333333334,0.4168041419141915
562,67,39.1600000000005,11.2400000000011,-927,292,522,0.185379,0.964776,0.109922,0.9885549807173094,0.4200256666666667,0.4168256831683169
563,67,39.1800000000005,11.260000000001096,0,86903,518,0.18056,0.961482,0.114436,0.9849594651659529,0.418826,0.4168140066006601
564,67,39.2000000000005,11.280000000001099,-784,604,526,0.182573,0.965264,0.106262,0.988108851629718,0.41803300000000004,0.41679971287128714
565,67,39.2200000000005,11.300000000001102,536936130,133133,523,0.183671,0.975329,0.100284,0.9975262277945377,0.4197613333333334,0.41681199339934005
566,67,39.2400000000005,11.320000000001098,0,86903,538,0.18544,0.967826,0.099247,0.9904166430775484,0.4175043333333333,0.4168156171617163
567,67,39.2600000000005,11.340000000001101,-706,304,552,0.187819,0.98515,0.095221,1.0074043568011803,0.42273,0.41686171947194733
568,67,39.2800000000005,11.360000000001097,536936130,133133,548,0.186111,0.972401,0.102785,0.99537217428809,0.4204323333333333,0.416856082508251
569,67,39.3000000000005,11.3800000000011,536884860,209577,522,0.186843,0.970632,0.103517,0.9938574119872529,0.4203306666666667,0.41680776567656774
570,67,39.3200000000005,11.400000000001096,0,86903,471,0.18361,0.976,0.09699,0.9978455252192094,0.41886666666666666,0.4168202475247525
571,67,39.3400000000005,11.4200000000011,536936130,133133,427,0.181963,0.974048,0.106811,0.9966386654118935,0.4209406666666667,0.4168595049504951
572,67,39.3600000000005,11.440000000001096,536936130,133133,409,0.18727,0.972218,0.107604,0.9959199331472385,0.422364,0.41690862706270626
573,67,39.3800000000005,11.460000000001099,0,86903,407,0.181658,0.976793,0.091012,0.9977010463846372,0.41648766666666664,0.4168937293729374
574,67,39.4000000000005,11.480000000001102,536936130,133133,404,0.179218,0.978196,0.103212,0.9998195951690484,0.4202086666666667,0.4169221155115513
575,67,39.4200000000005,11.500000000001098,0,86903,401,0.185928,0.971486,0.103883,0.994558166759994,0.4204323333333333,0.4169503003300331
576,67,39.4400000000005,11.520000000001101,0,86903,391,0.186599,0.968192,0.099979,0.9910654550058741,0.4182566666666667,0.4169778811881189
577,67,39.4600000000005,11.540000000001097,-667,436,385,0.18483,0.977464,0.098942,0.9996937128740983,0.420412,0.4170302244224423
578,67,39.4800000000005,11.5600000000011,0,86903,382,0.184525,0.975878,0.098881,0.9980805572046778,0.4197613333333334,0.4170714950495051
579,67,39.5000000000005,11.580000000001096,-689,444,376,0.183488,0.975268,0.099186,0.9973231074050175,0.419314,0.41710592079207937
580,67,39.5200000000005,11.6000000000011,536936130,133133,373,0.181841,0.973865,0.097966,0.9955282641201103,0.41789066666666663,0.4171343069306932
581,67,39.5400000000005,11.620000000001095,0,86903,374,0.185013,0.974597,0.098881,0.9969185396706193,0.419497,0.41718020792079225
582,67,39.5600000000005,11.640000000001098,-708,476,372,0.184647,0.974841,0.098027,0.9970049060155121,0.4191716666666667,0.4172188613861388
583,67,39.5800000000005,11.660000000001101,536936130,133133,373,0.185806,0.974475,0.10004,0.9970623836355477,0.42010699999999995,0.41726295049504963
584,67,39.6000000000005,11.680000000001098,536936130,133133,378,0.184952,0.975939,0.09943,0.9982737595093842,0.42010699999999995,0.4173080462046206
585,67,39.6200000000005,11.7000000000011,536936130,133133,378,0.183183,0.974658,0.099491,0.9967009017423432,0.4191106666666667,0.4173527392739275
586,67,39.6400000000006,11.720000000001196,536936130,133133,371,0.182573,0.972462,0.101626,0.9946572704449509,0.418887,0.4173867623762377
587,67,39.6600000000006,11.7400000000012,536936130,133133,365,0.183244,0.974109,0.099369,0.9961630918569508,0.41890733333333335,0.4174268250825083
588,67,39.6800000000006,11.760000000001195,0,86903,366,0.183122,0.975634,0.097356,0.9974334862916925,0.41870399999999997,0.4174902409240925
589,67,39.7000000000006,11.780000000001198,536936130,133133,367,0.184037,0.975512,0.097539,0.9975004441272195,0.4190293333333334,0.4174570231023102
590,67,39.7200000000006,11.800000000001202,0,86903,402,0.183793,0.976793,0.096685,0.9986252655140466,0.41909033333333334,0.4174588349834984
591,67,39.7400000000006,11.820000000001198,0,86903,288,0.185379,0.975207,0.101565,0.9978524518760277,0.420717,0.41740085478547867
592,67,39.7600000000006,11.8400000000012,536936130,133133,0,0.189832,0.988383,0.073688,1.0091417463651973,0.417301,0.4174713168316833
593,67,39.7800000000006,11.860000000001197,0,86903,-1,0.173301,0.962702,0.134627,0.9873969852769452,0.4235433333333333,0.4175776138613863
594,67,39.8000000000006,11.8800000000012,-827,526,474,0.173118,0.958493,0.139751,0.9839761252052817,0.4237873333333333,0.41766055775577576
595,67,39.8200000000006,11.900000000001196,536936130,133133,515,0.184098,0.992531,0.105408,1.0149486223592799,0.4273456666666667,0.41779866336633675
596,67,39.8400000000006,11.920000000001199,0,86903,505,0.17568,0.976976,0.097112,0.9973847339517484,0.4165893333333333,0.4178157755775579
597,67,39.8600000000006,11.940000000001202,-927,319,517,0.177815,0.966484,0.109251,0.9887594639152639,0.41785,0.41787013201320156
598,67,39.8800000000006,11.960000000001198,536936130,133133,515,0.178791,0.961726,0.112362,0.9846361458940048,0.4176263333333334,0.41786670957095723
599,67,39.9000000000006,11.980000000001201,536936130,133133,523,0.179645,0.970144,0.102114,0.9919067374289783,0.417301,0.41787295049504974
600,67,39.9200000000006,12.000000000001197,536936130,133133,532,0.183427,0.982832,0.091866,1.0040137282472785,0.41937500000000005,0.41791100000000025
601,67,39.9400000000006,12.0200000000012,536936130,133133,531,0.182268,0.973682,0.099796,0.9956091113303454,0.418582,0.417952673267327
602,67,39.9600000000006,12.040000000001196,536936130,133133,549,0.184769,0.981185,0.096929,1.0031245279759635,0.420961,0.418013270627063
603,67,39.9800000000006,12.0600000000012,0,86903,545,0.182634,0.979538,0.099125,1.0013369248285016,0.4204323333333333,0.41808192079207945
604,67,40.0000000000006,12.080000000001196,536936130,133133,520,0.181231,0.976366,0.099247,0.9979905852892601,0.41894800000000004,0.4181396996699673
605,67,40.0200000000006,12.100000000001199,0,86903,475,0.175741,0.971303,0.102968,0.9924297586801799,0.41667066666666663,0.4181912376237626
606,67,40.0400000000006,12.120000000001202,0,86903,439,0.179584,0.975573,0.093147,0.9963279856523152,0.4161013333333334,0.4182174092409244
607,67,40.0600000000006,12.140000000001198,-861,495,420,0.182756,0.974109,0.107482,0.9969154827471585,0.421449,0.4183114257425746
608,67,40.0800000000006,12.160000000001201,0,86903,408,0.179218,0.97783,0.091683,0.9983368033449433,0.4162436666666667,0.4183206864686471
609,67,40.1000000000006,12.180000000001197,-787,520,403,0.177693,0.982405,0.09699,1.0030460838735178,0.4190293333333333,0.4183573267326735
610,67,40.1200000000006,12.2000000000012,536936130,133133,398,0.179889,0.975939,0.098515,0.9972573335238002,0.4181143333333333,0.41839980528052845
611,67,40.1400000000006,12.220000000001196,0,86903,387,0.182512,0.969107,0.0976,0.9909615368887937,0.4164063333333334,0.4184378547854789
612,67,40.1600000000006,12.2400000000012,-840,526,383,0.180987,0.978806,0.095709,0.9999888461807962,0.4185006666666667,0.4184893927392742
613,67,40.1800000000006,12.260000000001195,536936130,133133,374,0.17995,0.975695,0.099857,0.997163053855286,0.4185006666666667,0.41852422112211257
614,67,40.2000000000006,12.280000000001198,536936130,133133,374,0.181841,0.974109,0.09943,0.9959120533772046,0.41846,0.4185580429042909
615,67,40.2200000000006,12.300000000001202,536936130,133133,369,0.176534,0.975634,0.097844,0.9962928301699255,0.4166706666666667,0.41857294059405975
616,67,40.2400000000006,12.320000000001198,536936130,133133,367,0.178669,0.978806,0.09089,0.9991220092145903,0.41612166666666667,0.4185856237623766
617,67,40.2600000000006,12.3400000000012,536936130,133133,364,0.181414,0.976793,0.094062,0.9979395092334005,0.41742300000000004,0.41860937953795413
618,67,40.2800000000007,12.360000000001296,0,86903,363,0.18239,0.974536,0.093269,0.9958341396824071,0.41673166666666667,0.418638772277228
619,67,40.3000000000007,12.3800000000013,536884860,209577,364,0.182817,0.974841,0.094184,0.9962969721052052,0.4172806666666667,0.41867440594059435
620,67,40.3200000000007,12.400000000001295,0,86903,368,0.179584,0.973011,0.093208,0.993825211212213,0.41526766666666665,0.41868789438943926
621,67,40.3400000000007,12.420000000001298,0,86903,365,0.179889,0.973194,0.097051,0.9944272273816722,0.4167113333333334,0.4187108448844888
622,67,40.3600000000007,12.440000000001302,-564,336,365,0.181048,0.973621,0.094123,0.9947740291513445,0.41626399999999997,0.4187172871287131
623,67,40.3800000000007,12.460000000001298,0,86903,355,0.180682,0.976488,0.091561,0.9972753962617347,0.4162436666666667,0.4187388283828385
624,67,40.4000000000007,12.4800000000013,-596,644,354,0.18178,0.97661,0.091683,0.9976055497986165,0.416691,0.4186629306930696
625,67,40.4200000000007,12.500000000001297,536936130,133133,356,0.180072,0.974231,0.093147,0.9951021707111285,0.4158166666666667,0.41868708910891106
626,67,40.4400000000007,12.5200000000013,0,86903,400,0.176534,0.976061,0.092964,0.9962437624261443,0.4151863333333334,0.41861884158415863
627,67,40.4600000000007,12.540000000001296,-732,219,-1,0.183976,0.974231,0.087108,0.9952693171202456,0.415105,0.4186351485148516
628,67,40.4800000000007,12.560000000001299,536936130,133133,-2,0.179584,0.97661,0.080276,0.9962237405984661,0.41215666666666667,0.4185926699669969
629,67,40.5000000000007,12.580000000001302,536936130,133133,-2,0.169641,0.961848,0.114253,0.9833531369726748,0.4152473333333333,0.4185864290429045
630,67,40.5200000000007,12.600000000001298,536936130,133133,466,0.186111,0.968436,0.084302,0.9897537156388957,0.4129496666666667,0.4185550231023104
631,67,40.5400000000007,12.620000000001301,536936130,133133,491,0.182024,0.991189,0.094001,1.0121386062679358,0.4224046666666667,0.41860635973597377
632,67,40.5600000000007,12.640000000001297,536936130,133133,492,0.176778,0.978074,0.082411,0.9973318322810116,0.412421,0.41858099339934013
633,67,40.5800000000007,12.6600000000013,0,86903,481,0.170922,0.962824,0.116571,0.9848010880888587,0.4167723333333333,0.4185554257425745
634,67,40.6000000000007,12.680000000001296,536936130,133133,488,0.173972,0.953247,0.114375,0.9757190888867553,0.4138646666666667,0.4185123432343236
635,67,40.6200000000007,12.7000000000013,0,86903,492,0.177876,0.968985,0.10004,0.9902422951990084,0.4156336666666666,0.418489392739274
636,67,40.6400000000007,12.720000000001296,0,86903,504,0.185562,0.981673,0.084302,1.0026075812485162,0.417179,0.41849039933993415
637,67,40.6600000000007,12.740000000001299,1075052540,989857280,500,0.181414,0.976366,0.089304,0.997084153804482,0.4156946666666667,0.41846825412541266
638,67,40.6800000000007,12.760000000001302,0,86903,503,0.180926,0.977098,0.097356,0.9984652772209958,0.41846,0.41844107590759083
639,67,40.7000000000007,12.780000000001298,-758,475,503,0.181231,0.978257,0.094123,0.9993450718040291,0.41787033333333334,0.41849603630363047
640,67,40.7200000000007,12.800000000001301,536936130,133133,492,0.180987,0.969046,0.099796,0.9908408983792504,0.4166096666666667,0.4184936204620463
641,67,40.7400000000007,12.820000000001297,0,86903,467,0.179706,0.973011,0.097356,0.9942448608330846,0.416691,0.41848556765676576
642,67,40.7600000000007,12.8400000000013,-791,361,438,0.181109,0.984784,0.078507,1.004372115097786,0.41480000000000006,0.418474495049505
643,67,40.7800000000007,12.860000000001296,536936130,133133,431,0.181292,0.976183,0.102236,0.9981243602121932,0.4199036666666667,0.41847731353135326
644,67,40.8000000000007,12.8800000000013,536936130,133133,409,0.181231,0.972462,0.097295,0.9939785379121624,0.416996,0.4184553696369638
645,67,40.8200000000007,12.900000000001295,536936130,133133,413,0.17751,0.981978,0.088267,1.0017892272693891,0.4159183333333334,0.41843100990099014
646,67,40.8400000000007,12.920000000001298,536936130,133133,405,0.183976,0.973072,0.092537,0.9946252470800246,0.4165283333333334,0.4184279900990099
647,67,40.8600000000007,12.940000000001302,234236,4911,398,0.183976,0.977281,0.087413,0.9982817007768899,0.41622333333333333,0.4184102739273927
648,67,40.8800000000007,12.960000000001298,0,86903,394,0.180987,0.976854,0.094245,0.9979389517951487,0.41736199999999996,0.4183931617161716
649,67,40.9000000000007,12.9800000000013,536936130,133133,384,0.183366,0.973743,0.096197,0.9955161389018262,0.4177686666666667,0.41837625082508245
650,67,40.9200000000008,13.000000000001396,0,86903,382,0.182634,0.972706,0.096136,0.9943612376234302,0.4171586666666667,0.41836175577557755
651,67,40.9400000000008,13.0200000000014,0,86903,380,0.178852,0.974231,0.098393,0.995386990930663,0.4171586666666667,0.4183454488448845
652,67,40.9600000000008,13.040000000001395,-782,428,375,0.183427,0.972889,0.09516,0.9945923266595212,0.4171586666666666,0.4183295445544554
653,67,40.9800000000008,13.060000000001398,0,86903,374,0.183183,0.973621,0.094977,0.9952459463162862,0.41726033333333334,0.4183186732673268
654,67,41.0000000000008,13.080000000001402,-603,961,375,0.183793,0.974292,0.095892,0.9961024263483149,0.41799233333333335,0.4183172640264026
655,67,41.0200000000008,13.100000000001398,536936130,133133,379,0.183183,0.976061,0.094367,0.9975751690469244,0.41787033333333334,0.41831625742574247
656,67,41.0400000000008,13.1200000000014,0,86903,377,0.184586,0.977891,0.091805,0.9993852897166338,0.41809399999999997,0.4183102178217821
657,67,41.0600000000008,13.140000000001397,-719,543,370,0.185135,0.973316,0.096014,0.9954083043038168,0.418155,0.4182778052805278
658,67,41.0800000000008,13.1600000000014,536936130,133133,368,0.184708,0.973194,0.093574,0.9949772361094499,0.4171586666666667,0.4182753894389437
659,67,41.1000000000008,13.180000000001396,536936130,133133,370,0.18605,0.972706,0.09638,0.9950179241280028,0.4183786666666666,0.4181632541254124
660,67,41.1200000000008,13.200000000001399,536936130,133133,370,0.182573,0.975512,0.095953,0.9970774998373998,0.41801266666666664,0.4181578184818481
661,67,41.1400000000008,13.220000000001402,536936130,133133,464,0.183183,0.974902,0.098637,0.9968546427950267,0.41890733333333335,0.4180895709570957
662,67,41.1600000000008,13.240000000001398,536936130,133133,0,0.189588,0.985577,0.079483,1.0067885477904486,0.418216,0.418094201320132
663,67,41.1800000000008,13.260000000001401,0,86903,-1,0.176046,0.961421,0.129564,0.9859560656809206,0.4223436666666667,0.41811715181518144
664,67,41.2000000000008,13.280000000001397,536936130,133133,348,0.180987,0.962824,0.120597,0.9870815495965873,0.4214693333333333,0.41814332343234323
665,67,41.2200000000008,13.3000000000014,0,86903,504,0.190259,0.985272,0.067832,1.0057636806372559,0.4144543333333333,0.4181078910891088
666,67,41.2400000000008,13.320000000001397,0,86903,496,0.182878,0.985943,0.074664,1.0055360137901577,0.41449500000000006,0.4180557491749175
667,67,41.2600000000008,13.3400000000014,-2142765060,179363,484,0.172508,0.960506,0.115412,0.9826752850479145,0.416142,0.41804226072607253
668,67,41.2800000000008,13.360000000001396,0,86903,491,0.178913,0.955382,0.11224,0.9784489997404054,0.41551166666666656,0.41797079207920784
669,67,41.3000000000008,13.380000000001399,-872,333,498,0.18178,0.961543,0.109129,0.9846410756666614,0.417484,0.417941600660066
670,67,41.3200000000008,13.400000000001402,536936130,133133,507,0.190869,0.983564,0.083387,1.0053767995264262,0.4192733333333334,0.4179311320132015
671,67,41.3400000000008,13.420000000001398,0,86903,501,0.185562,0.977952,0.092171,0.9996593736813556,0.4185616666666667,0.4179281122112212
672,67,41.3600000000008,13.440000000001401,-817,667,506,0.182573,0.975634,0.094977,0.9971034213229839,0.41772800000000004,0.4178963036303631
673,67,41.3800000000008,13.460000000001397,536936130,133133,509,0.183915,0.973316,0.095953,0.9951762362968681,0.41772799999999993,0.417850402640264
674,67,41.4000000000008,13.4800000000014,536936130,133133,505,0.184464,0.970449,0.095709,0.9924507250125821,0.416874,0.4178542277227724
675,67,41.4200000000008,13.500000000001396,536936130,133133,476,0.186538,0.970693,0.098271,0.9933269930561638,0.4185006666666667,0.4178373168316833
676,67,41.4400000000008,13.5200000000014,536936130,133133,448,0.184281,0.973011,0.103334,0.9956845929499963,0.4202086666666667,0.41783510231023113
677,67,41.4600000000008,13.540000000001395,536936130,133133,438,0.185806,0.976061,0.105774,0.9992032247911332,0.422547,0.41787758085808596
678,67,41.4800000000008,13.560000000001398,0,86903,424,0.188307,0.969961,0.101443,0.9932645921500474,0.4199036666666667,0.41787254785478567
679,67,41.5000000000008,13.580000000001402,536936130,133133,425,0.182817,0.973743,0.088267,0.994680123872494,0.41494233333333336,0.4178248349834986
680,67,41.5200000000008,13.600000000001398,0,86903,418,0.17873,0.975939,0.091256,0.9963578685176325,0.41530833333333333,0.41778517491749195
681,67,41.5400000000008,13.6200000000014,0,86903,403,0.184891,0.967521,0.092476,0.9893600850539706,0.41496266666666665,0.4177561848184821
682,67,41.5600000000009,13.640000000001496,-576,421,400,0.182268,0.978684,0.092171,0.9997697179455877,0.41770766666666664,0.4177384686468649
683,67,41.5800000000009,13.6600000000015,0,86903,391,0.181109,0.977891,0.094611,0.9990107702537545,0.41787033333333334,0.4177255841584161
684,67,41.6000000000009,13.680000000001495,-527,248,387,0.180682,0.971974,0.09455,0.9931360150049942,0.4157353333333333,0.4176823003300332
685,67,41.6200000000009,13.700000000001499,536936130,133133,385,0.182695,0.971303,0.095892,0.9929764632145115,0.41663000000000006,0.41764787458745883
686,67,41.6400000000009,13.720000000001502,0,86903,385,0.182451,0.974658,0.090524,0.9957113933972033,0.41587766666666665,0.4176158646864687
687,67,41.6600000000009,13.740000000001498,-397,172,384,0.184403,0.974353,0.092232,0.9959292027257761,0.4169960000000001,0.4175971419141915
688,67,41.6800000000009,13.7600000000015,536936130,133133,389,0.184281,0.97417,0.092354,0.9957388900595376,0.416935,0.41757761386138614
689,67,41.7000000000009,13.780000000001497,536936130,133133,390,0.184952,0.974353,0.091683,0.9959803127582392,0.416996,0.417560702970297
690,67,41.7200000000009,13.8000000000015,536936130,133133,382,0.185013,0.97539,0.093452,0.9971703658718504,0.4179516666666667,0.41755003300330035
691,67,41.7400000000009,13.820000000001496,536936130,133133,380,0.185013,0.973987,0.092232,0.9956843014540302,0.41707733333333336,0.41753010231023097
692,67,41.7600000000009,13.840000000001499,-332,988,374,0.186355,0.97234,0.089487,0.9940730278978502,0.4160606666666667,0.41748399999999997
693,67,41.7800000000009,13.860000000001502,0,86903,371,0.192699,0.974963,0.08967,0.997860944656118,0.41911066666666663,0.41750191749174914
694,67,41.8000000000009,13.880000000001498,536936130,133133,376,0.190381,0.977342,0.088694,0.9996544081636414,0.4188056666666667,0.41745500990099005
695,67,41.8200000000009,13.900000000001501,0,86903,458,0.178486,0.971425,0.098454,0.992580965431536,0.41612166666666667,0.41737911221122104
696,67,41.8400000000009,13.920000000001497,0,86903,-2,0.180743,0.967948,0.103334,0.9900854904042378,0.41734166666666667,0.41728006270627055
697,67,41.8600000000009,13.9400000000015,-450,167,2,0.178425,0.972645,0.089121,0.9928828376455099,0.413397,0.41724845544554456
698,67,41.8800000000009,13.960000000001497,0,86903,0,0.182573,0.960567,0.117181,0.9847605031574936,0.420107,0.4172708019801981
699,67,41.9000000000009,13.9800000000015,-569,563,548,0.189283,0.981734,0.040992,1.0006548080676971,0.40400299999999995,0.4171359174917492
700,67,41.9200000000009,14.000000000001496,536936130,133133,512,0.187392,0.987956,0.114863,1.0121098400712247,0.43007033333333333,0.4172623465346535
701,67,41.9400000000009,14.020000000001499,0,86903,528,0.180011,0.986614,0.080154,1.0060993036639077,0.41559300000000005,0.417224900990099
702,67,41.9600000000009,14.040000000001502,-876,361,522,0.182939,0.961909,0.115351,0.9859216273127392,0.4200663333333334,0.417239597359736
703,67,41.9800000000009,14.060000000001498,536936130,133133,528,0.183427,0.965691,0.101199,0.9881527257519457,0.41677233333333336,0.41719812541254125
704,67,42.0000000000009,14.080000000001501,-840,523,541,0.185318,0.978318,0.088511,0.999641469412409,0.41738233333333336,0.4171679273927393
705,67,42.0200000000009,14.100000000001497,-840,523,533,0.183671,0.965813,0.103029,0.9885063287865183,0.4175043333333333,0.4171536336633663
706,67,42.0400000000009,14.1200000000015,536936130,133133,554,0.189222,0.97417,0.093025,0.9967275479332354,0.41880566666666663,0.41717477227722766
707,67,42.0600000000009,14.140000000001496,-536813568,113,562,0.189832,0.985028,0.08906,1.0070988196835502,0.42130666666666666,0.417226310231023
708,67,42.0800000000009,14.1600000000015,0,86903,555,0.190259,0.97417,0.100223,0.9976223362124567,0.42155066666666663,0.4172273168316831
709,67,42.1000000000009,14.180000000001495,536936130,133133,526,0.191174,0.971852,0.100467,0.9955588512333161,0.4211643333333334,0.41727603630363036
710,67,42.1200000000009,14.200000000001499,0,86903,471,0.182939,0.978501,0.09638,1.0001099885122635,0.41927333333333333,0.4172784521452145
711,67,42.1400000000009,14.220000000001502,0,86903,436,0.184952,0.974475,0.099186,0.9968182535071275,0.41953766666666664,0.4172925445544554
712,67,42.1600000000009,14.240000000001498,-685,377,423,0.194102,0.970266,0.109007,0.9954768823076706,0.4244583333333334,0.4173722673267327
713,67,42.1800000000009,14.2600000000015,0,86903,417,0.183122,0.979172,0.08784,1.00001366894058,0.4167113333333334,0.41735455115511555
714,67,42.200000000001,14.280000000001596,-673,341,414,0.179767,0.982344,0.100284,1.003679624821088,0.42079833333333333,0.417377300330033
715,67,42.220000000001,14.3000000000016,536936130,133133,409,0.182085,0.976,0.093391,0.9972225559552892,0.4171586666666667,0.4173644158415842
716,67,42.240000000001,14.320000000001595,0,86903,402,0.190198,0.965691,0.096441,0.9889566487799148,0.41744333333333333,0.4173720660066007
717,67,42.260000000001,14.340000000001599,-763,280,397,0.189405,0.981856,0.089731,1.0039756526539874,0.42033066666666663,0.4174137392739274
718,67,42.280000000001,14.360000000001602,536936130,133133,389,0.19032,0.976183,0.094245,0.9990180538478772,0.4202493333333333,0.41744172277227715
719,67,42.300000000001,14.380000000001598,-787,310,381,0.190198,0.973316,0.096685,0.996427269942468,0.42006633333333326,0.4174747392739273
720,67,42.320000000001,14.4000000000016,-787,310,379,0.18605,0.972157,0.098027,0.9946422109874485,0.4187446666666667,0.4174892343234323
721,67,42.340000000001,14.420000000001597,536936130,133133,375,0.188551,0.973011,0.097539,0.9958994639234424,0.41970033333333334,0.4175331221122112
722,67,42.360000000001,14.4400000000016,536936130,133133,376,0.188673,0.969595,0.099308,0.9927608190385034,0.419192,0.4175576831683168
723,67,42.380000000001,14.460000000001596,0,86903,377,0.188734,0.975146,0.094367,0.9977150769438137,0.4194156666666667,0.41758888778877884
724,67,42.400000000001,14.4800000000016,536936130,133133,371,0.189771,0.974902,0.096563,0.9978834375887797,0.420412,0.41763015841584145
725,67,42.420000000001,14.500000000001595,0,86903,370,0.190015,0.971608,0.098332,0.994885414564411,0.41998500000000005,0.4176627722772276
726,67,42.440000000001,14.520000000001598,0,86903,361,0.188856,0.972279,0.097539,0.995242130889765,0.41955800000000004,0.41769981518151805
727,67,42.460000000001,14.540000000001601,1074790400,989857470,361,0.188978,0.970449,0.09821,0.9935437334033163,0.4192123333333333,0.4177396765676567
728,67,42.480000000001,14.560000000001597,0,86903,362,0.187575,0.972096,0.097539,0.9948210242862783,0.41907,0.4177789339933992
729,67,42.500000000001,14.5800000000016,0,0,471,0.185013,0.975634,0.097844,0.9978301260540293,0.419497,0.41785161056105596
730,67,42.520000000001,14.600000000001597,536936130,133133,-1,0.19398,0.98149,0.080764,1.0037298860729413,0.4187446666666667,0.41788623762376226
731,67,42.540000000001,14.6200000000016,0,86903,-1,0.183061,0.972218,0.103029,0.9946527756388156,0.419436,0.41795045874587455
732,67,42.560000000001,14.640000000001596,-634,298,-1,0.187575,0.97173,0.090707,0.9938165491548226,0.4166706666666667,0.4178936864686467
733,67,42.580000000001,14.660000000001599,536936130,133133,556,0.186294,0.980392,0.108092,1.003771791078032,0.4249260000000001,0.41801749834983487
734,67,42.600000000001,14.680000000001602,-834,427,509,0.183976,0.982527,0.1037,1.004967742917652,0.42340099999999997,0.4180831287128712
735,67,42.620000000001,14.700000000001598,-834,427,527,0.18361,0.966667,0.106689,0.9897172645306336,0.4189886666666667,0.41813386138613845
736,67,42.640000000001,14.720000000001601,536936130,133133,529,0.185379,0.965569,0.107299,0.9890409206918589,0.4194156666666667,0.4181713069306929
737,67,42.660000000001,14.740000000001597,234236,4911,531,0.187026,0.971608,0.102236,0.9947125363822454,0.42029,0.41820210891089094
738,67,42.680000000001,14.7600000000016,0,86903,539,0.182878,0.975146,0.098942,0.9970675020097686,0.4189886666666667,0.4182347227722771
739,67,42.700000000001,14.780000000001596,536936130,133133,539,0.184281,0.966972,0.110593,0.9905680932646681,0.42061533333333334,0.4182560627062704
740,67,42.720000000001,14.8000000000016,536936130,133133,556,0.192638,0.978928,0.091378,1.0018779202637416,0.4209813333333334,0.4182868646864684
741,67,42.740000000001,14.820000000001595,0,86903,559,0.189405,0.984174,0.093147,1.0065530686009556,0.422242,0.4183426303630361
742,67,42.760000000001,14.840000000001599,-673,371,555,0.1891,0.971486,0.100528,0.9948114077452067,0.42037133333333326,0.4183790693069306
743,67,42.780000000001,14.860000000001602,0,86903,521,0.18788,0.972096,0.097051,0.9948308520633042,0.41900899999999996,0.41842074257425743
744,67,42.800000000001,14.880000000001598,0,86903,493,0.186233,0.976488,0.0976,0.9988680115175379,0.420107,0.4184227557755775
745,67,42.820000000001,14.9000000000016,-736,420,430,0.182085,0.976305,0.102114,0.9983755151474819,0.42016800000000004,0.41845416171617156
746,67,42.8400000000011,14.920000000001696,0,86903,423,0.182573,0.98271,0.083509,1.003008273899074,0.416264,0.4184575841584158
747,67,42.8600000000011,14.9400000000017,-727,449,407,0.186111,0.97112,0.105225,0.9943760150697522,0.4208186666666666,0.41850006270627055
748,67,42.8800000000011,14.960000000001695,536936130,133133,414,0.179462,0.978318,0.100284,0.9996847499206938,0.4193546666666667,0.41853106600660056
749,67,42.9000000000011,14.980000000001699,0,86903,406,0.183366,0.974658,0.100345,0.9968201572726146,0.41945633333333326,0.418551801980198
750,67,42.9200000000011,15.000000000001702,-686,432,393,0.187636,0.970876,0.093025,0.9932074941808483,0.41717899999999997,0.41854596369636954
751,67,42.9400000000011,15.020000000001698,536936130,133133,390,0.188246,0.97844,0.093208,1.0007342910982915,0.4199646666666666,0.4185737458745873
752,67,42.9600000000011,15.040000000001701,0,86903,384,0.18666,0.979111,0.093696,1.0011389745370018,0.4198223333333333,0.4186001188118811
753,67,42.9800000000011,15.060000000001697,0,86903,376,0.185196,0.975451,0.097295,0.9976314594287812,0.41931399999999996,0.4186214587458745
754,67,43.0000000000011,15.0800000000017,536936130,133133,372,0.181536,0.974048,0.099674,0.9958211344794807,0.4184193333333333,0.41863293399339924
755,67,43.0200000000011,15.100000000001696,536936130,133133,369,0.18422,0.97417,0.099674,0.9964331907237935,0.4193546666666667,0.41864642244224404
756,67,43.0400000000011,15.1200000000017,0,86903,366,0.183976,0.973377,0.098454,0.9954914077082735,0.41860233333333335,0.41865366996699654
757,67,43.0600000000011,15.140000000001695,-882,250,370,0.185135,0.972889,0.101443,0.9955293349746154,0.4198223333333333,0.4186707821782177
758,67,43.0800000000011,15.160000000001698,0,86903,373,0.186416,0.974475,0.097234,0.9968986415062466,0.419375,0.4186828613861385
759,67,43.1000000000011,15.180000000001701,0,86903,373,0.186477,0.974475,0.09577,0.996768323159399,0.4189073333333333,0.4187001749174916
760,67,43.1200000000011,15.200000000001697,-643,177,361,0.185501,0.972767,0.098942,0.9952264951527366,0.41907000000000005,0.41870701980198016
761,67,43.1400000000011,15.2200000000017,0,86903,359,0.185074,0.972767,0.097051,0.9949607622243202,0.41829733333333335,0.41870983828382835
762,67,43.1600000000011,15.240000000001697,-799,518,362,0.186477,0.972706,0.098088,0.9952647334799922,0.41909033333333334,0.4187116501650165
763,67,43.1800000000011,15.2600000000017,536936130,133133,361,0.186416,0.974292,0.0976,0.9967555298667774,0.419436,0.4187237293729372
764,67,43.2000000000011,15.280000000001696,0,86903,373,0.185745,0.974963,0.096258,0.9971557846986598,0.4189886666666667,0.41869051155115505
765,67,43.2200000000011,15.300000000001699,-453,494,-2,0.192394,0.977891,0.087047,1.0004316265122768,0.4191106666666667,0.41866715841584157
766,67,43.2400000000011,15.320000000001702,536936130,133133,-2,0.195871,0.98759,0.073017,1.0094706231634478,0.418826,0.4187104422442245
767,67,43.2600000000011,15.340000000001698,0,86903,0,0.188002,0.975695,0.086864,0.9974321227657549,0.4168536666666667,0.41873379537953803
768,67,43.2800000000011,15.360000000001701,0,86903,375,0.194102,0.974048,0.053741,0.994652294919687,0.407297,0.4186462211221122
769,67,43.3000000000011,15.380000000001697,536936130,133133,512,0.186721,0.982893,0.123525,1.0080683542870492,0.43104633333333336,0.41880002970297037
770,67,43.3200000000011,15.4000000000017,536936130,133133,520,0.182634,0.96746,0.105957,0.9902327581962738,0.4186836666666667,0.41881190759075915
771,67,43.3400000000011,15.420000000001696,0,86903,517,0.182573,0.963739,0.104249,0.9864043868774105,0.4168536666666667,0.4187879504950495
772,67,43.3600000000011,15.4400000000017,-819,612,522,0.185013,0.96441,0.109495,0.9880817847192609,0.4196393333333333,0.4187986204620463
773,67,43.3800000000011,15.460000000001695,0,86903,528,0.187636,0.977708,0.093574,0.9999381457050232,0.4196393333333333,0.41881754455445563
774,67,43.4000000000011,15.480000000001699,0,86903,528,0.186721,0.974414,0.101565,0.9973278420168565,0.4209,0.4188489504950496
775,67,43.4200000000011,15.500000000001702,536936130,133133,550,0.193065,0.970327,0.094428,0.9938436639321097,0.41927333333333333,0.4188727062706274
776,67,43.4400000000011,15.520000000001698,0,86903,556,0.190503,0.981856,0.094611,1.0046311955469032,0.42232333333333333,0.4189105544554456
777,67,43.4600000000011,15.540000000001701,536936130,133133,561,0.188246,0.977281,0.099186,1.0001762705008552,0.421571,0.41892404290429064
778,67,43.4800000000012,15.560000000001796,536936130,133133,545,0.189039,0.974475,0.095831,0.9972566619015388,0.41978166666666666,0.4188966633663368
779,67,43.5000000000012,15.5800000000018,0,86903,488,0.184403,0.977098,0.099247,0.9992872134786875,0.4202493333333334,0.41890008580858096
780,67,43.5200000000012,15.600000000001796,-710,398,422,0.18666,0.982466,0.084729,1.0036236347341565,0.41795166666666667,0.4189298811881189
781,67,43.5400000000012,15.620000000001799,536936130,133133,422,0.18239,0.977342,0.109922,1.0002731342728344,0.42321800000000004,0.4190081947194721
782,67,43.5600000000012,15.640000000001802,0,86903,405,0.19276,0.969168,0.106262,0.9938484001436034,0.42273000000000005,0.41908509900990115
783,67,43.5800000000012,15.660000000001798,0,86903,405,0.181963,0.977769,0.104615,1.000043523530351,0.42144899999999996,0.41912214191419156
784,67,43.6000000000012,15.680000000001801,536936130,133133,397,0.184891,0.974902,0.100406,0.9973464575166445,0.4200663333333334,0.41914388448844897
785,67,43.6200000000012,15.700000000001797,536884860,209577,390,0.19154,0.971547,0.096258,0.994915447348668,0.41978166666666666,0.4191839471947196
786,67,43.6400000000012,15.7200000000018,0,86903,383,0.192089,0.978745,0.099369,1.002354307172369,0.42340099999999997,0.41925098679868
787,67,43.6600000000012,15.740000000001796,-658,460,380,0.192211,0.980453,0.097783,1.0038897692570634,0.4234823333333333,0.41932628052805293
788,67,43.6800000000012,15.7600000000018,0,86903,371,0.188368,0.973499,0.099552,0.9965407202563276,0.42047300000000004,0.4193607062706272
789,67,43.7000000000012,15.780000000001795,0,86903,367,0.183793,0.976305,0.099735,0.99844799068304,0.4199443333333333,0.41939050165016517
790,67,43.7200000000012,15.800000000001798,-663,411,369,0.186233,0.971425,0.101138,0.994272676863847,0.4195986666666667,0.4194162706270629
791,67,43.7400000000012,15.820000000001802,0,86903,366,0.188246,0.97234,0.101504,0.9955825903118234,0.42069666666666666,0.4194434488448846
792,67,43.7600000000012,15.840000000001798,-705,465,366,0.188673,0.97173,0.101687,0.9950863981574665,0.4206966666666667,0.41947928382838295
793,67,43.7800000000012,15.8600000000018,536936130,133133,366,0.186538,0.975573,0.099247,0.9981929025904762,0.42045266666666675,0.4195227689768978
794,67,43.8000000000012,15.880000000001797,0,86903,361,0.187514,0.974597,0.100528,0.9975503452904019,0.4208796666666667,0.4195402838283829
795,67,43.8200000000012,15.9000000000018,-729,306,365,0.187758,0.972462,0.101016,0.9955599631684673,0.420412,0.41955618811881196
796,67,43.8400000000012,15.920000000001796,536936130,133133,369,0.187819,0.972157,0.102114,0.9953855928262173,0.4206966666666667,0.41960148514851486
797,67,43.8600000000012,15.940000000001799,0,86903,371,0.187392,0.971547,0.101443,0.994640647229943,0.42012733333333335,0.4196290660066006
798,67,43.8800000000012,15.960000000001802,0,86903,369,0.187636,0.972096,0.102053,0.9952852437974753,0.420595,0.4197003333333333
799,67,43.9000000000012,15.980000000001798,536936130,133133,367,0.189405,0.975024,0.099369,0.9982085216837211,0.421266,0.419711808580858
800,67,43.9200000000012,16.0000000000018,536936130,133133,362,0.188307,0.974353,0.098942,0.9973027695850443,0.420534,0.41987548184818474
801,67,43.9400000000012,16.020000000001797,0,86903,361,0.188185,0.974719,0.100711,0.9978143257675749,0.421205,0.419787706270627
802,67,43.9600000000012,16.0400000000018,-669,251,362,0.188978,0.974353,0.099979,0.9975330839295508,0.4211033333333334,0.4198422640264026
803,67,43.9800000000012,16.060000000001796,0,86903,400,0.186477,0.972218,0.101321,0.9951117807030525,0.42000533333333334,0.41984166006600665
804,67,44.0000000000012,16.0800000000018,0,86903,210,0.188978,0.97234,0.1037,0.9959475137194731,0.42167266666666664,0.4198901782178218
805,67,44.0200000000012,16.100000000001796,116621,536878210,-1,0.187819,0.978806,0.08479,1.0002632186064826,0.41713833333333333,0.4198877623762377
806,67,44.0400000000012,16.1200000000018,0,86903,0,0.178181,0.960689,0.14274,0.9874444445547305,0.4272033333333334,0.41998379207920794
807,67,44.0600000000012,16.140000000001802,-808,472,486,0.17873,0.958249,0.142862,0.985187855155046,0.42661366666666667,0.420061099009901
808,67,44.0800000000012,16.160000000001798,536936130,133133,511,0.188978,0.985821,0.124745,1.011492483190063,0.43318133333333336,0.42017866996699665
809,67,44.1000000000012,16.1800000000018,0,86903,518,0.185501,0.977098,0.088084,0.9984437458670368,0.4168943333333333,0.42013256765676565
810,67,44.1200000000013,16.200000000001896,-1036,289,528,0.181841,0.957456,0.122549,0.9822455897676508,0.42061533333333334,0.4201271320132013
811,67,44.1400000000013,16.2200000000019,536936130,133133,528,0.184891,0.959591,0.114924,0.9839751495530769,0.419802,0.42013236633663364
812,67,44.1600000000013,16.240000000001896,536884860,209577,533,0.18727,0.971059,0.097905,0.9937862060855946,0.4187446666666666,0.42012451485148505
813,67,44.1800000000013,16.2600000000019,0,86903,532,0.18727,0.969229,0.108031,0.9930486414582117,0.42151,0.4200953234323431
814,67,44.2000000000013,16.280000000001902,234636,0,544,0.192272,0.972401,0.095648,0.9958316959652369,0.420107,0.42012894389438943
815,67,44.2200000000013,16.300000000001898,536884860,209577,559,0.189771,0.978806,0.101565,1.002192430275743,0.4233806666666666,0.42015451155115513
816,67,44.2400000000013,16.3200000000019,0,86903,560,0.189527,0.974231,0.105164,0.998051096881317,0.422974,0.42021208910891095
817,67,44.2600000000013,16.340000000001897,-706,445,542,0.189222,0.972767,0.102053,0.9962406418039771,0.42134733333333335,0.42025074257425754
818,67,44.2800000000013,16.3600000000019,0,86903,489,0.181353,0.975878,0.105103,0.9981349718860671,0.42077799999999993,0.4202551716171618
819,67,44.3000000000013,16.380000000001896,0,86903,440,0.185928,0.975817,0.09882,0.9982752281174766,0.42018833333333333,0.42025456765676583
820,67,44.3200000000013,16.4000000000019,-671,464,414,0.192577,0.968497,0.104188,0.9929388094349018,0.421754,0.42027127722772295
821,67,44.3400000000013,16.420000000001895,0,86903,408,0.185623,0.972462,0.091744,0.9942611332587632,0.4166096666666667,0.42025013861386157
822,67,44.3600000000013,16.4400000000019,-714,394,409,0.180499,0.977159,0.10126,0.998835916395681,0.4196393333333333,0.42024953465346554
823,67,44.3800000000013,16.4600000000019,0,86903,401,0.186416,0.973499,0.102175,0.9964391394771684,0.42069666666666666,0.42026443234323446
824,67,44.4000000000013,16.480000000001898,0,86903,391,0.189466,0.965447,0.101931,0.9891285071849866,0.41894800000000004,0.42025980198019813
825,67,44.4200000000013,16.5000000000019,-685,424,384,0.189039,0.978501,0.10126,1.0017252807641424,0.42293333333333333,0.4202847656765677
826,67,44.4400000000013,16.520000000001897,536936130,133133,378,0.188917,0.973499,0.102785,0.9969727639785352,0.4217336666666666,0.4203020792079209
827,67,44.4600000000013,16.5400000000019,536936130,133133,373,0.186599,0.973682,0.101016,0.9965340215873215,0.42043233333333335,0.4203107359735974
828,67,44.4800000000013,16.560000000001896,0,86903,372,0.184403,0.97478,0.103334,0.9974359279497605,0.420839,0.42032684158415845
829,67,44.5000000000013,16.5800000000019,0,86903,367,0.184952,0.973194,0.1037,0.996025850036032,0.4206153333333333,0.4203421419141914
830,67,44.5200000000013,16.600000000001902,5,8,365,0.185623,0.971547,0.104371,0.9946118725306873,0.4205136666666667,0.42035220792079203
831,67,44.5400000000013,16.620000000001898,0,86903,366,0.185501,0.972584,0.103395,0.9955002682480804,0.42049333333333333,0.4203695214521452
832,67,44.5600000000013,16.6400000000019,-701,417,366,0.185257,0.973926,0.103273,0.996753390791323,0.4208186666666667,0.42038321122112215
833,67,44.5800000000013,16.660000000001897,0,86903,366,0.18422,0.974353,0.10065,0.9967101883240684,0.419741,0.42041361056105614
834,67,44.6000000000013,16.6800000000019,0,86903,365,0.184952,0.973621,0.100406,0.9961056463955015,0.4196596666666667,0.42036146864686474
835,67,44.6200000000013,16.700000000001896,-663,450,368,0.185135,0.973194,0.101382,0.995821188660394,0.4199036666666667,0.4203268415841585
836,67,44.6400000000013,16.7200000000019,0,86903,367,0.185379,0.973499,0.10065,0.9960904071127279,0.41984266666666664,0.4203352970297031
837,67,44.6600000000013,16.740000000001896,-944,309,371,0.186599,0.974536,0.101992,0.9974677790089261,0.42104233333333335,0.42035140264026416
838,67,44.6800000000013,16.7600000000019,0,86903,377,0.185684,0.973926,0.102663,0.9967698294496077,0.42075766666666664,0.4203560330033005
839,67,44.7000000000013,16.780000000001902,0,86903,374,0.185928,0.972828,0.101443,0.9956175073877518,0.4200663333333334,0.4203667029702971
840,67,44.7200000000013,16.800000000001898,-785,294,370,0.185501,0.973743,0.101809,0.9964693289464559,0.420351,0.42036408580858087
841,67,44.7400000000013,16.8200000000019,536936130,133133,364,0.184037,0.974597,0.10187,0.9970388290723687,0.42016800000000004,0.4203560330033003
842,67,44.7600000000014,16.840000000001996,-758,596,366,0.183854,0.974597,0.101199,0.9969367298509972,0.4198833333333334,0.4203326798679867
843,67,44.7800000000014,16.860000000002,0,86903,367,0.18422,0.973682,0.102968,0.9962911494879396,0.42029,0.4203318745874587
844,67,44.8000000000014,16.880000000001996,0,86903,400,0.183366,0.976671,0.099308,0.998684840708519,0.41978166666666666,0.42033952475247516
845,67,44.8200000000014,16.900000000002,536936130,133133,0,0.188734,0.979843,0.086559,1.0016013617632515,0.4183786666666667,0.4203224125412541
846,67,44.8400000000014,16.920000000002002,0,86903,0,0.19215,0.990762,0.071858,1.0117779080944593,0.41825666666666667,0.4203034884488448
847,67,44.8600000000014,16.940000000001998,-810,201,-3,0.179035,0.971181,0.102297,0.9928296642400447,0.4175043333333333,0.42031576897689754
848,67,44.8800000000014,16.960000000002,536936130,133133,470,0.192882,0.970571,0.066002,0.9917498656259047,0.4098183333333334,0.4202068547854784
849,67,44.9000000000014,16.980000000001997,0,86903,522,0.184525,0.988505,0.126697,1.0135303352435978,0.43324233333333334,0.4203443564356435
850,67,44.9200000000014,17.000000000002,536936130,133133,528,0.181109,0.972828,0.10065,0.9946482845533893,0.41819566666666663,0.4203318745874587
851,67,44.9400000000014,17.020000000001996,536936130,133133,525,0.177571,0.971486,0.104798,0.993125938157392,0.41795166666666667,0.4203395247524752
852,67,44.9600000000014,17.040000000002,-1180,691,524,0.179828,0.968009,0.117364,0.9915411449662591,0.4217336666666667,0.42035703960396037
853,67,44.9800000000014,17.060000000001995,536936130,133133,532,0.185135,0.97478,0.096685,0.9969047125227165,0.41886666666666666,0.4203475775577558
854,67,45.0000000000014,17.080000000002,0,0,536,0.183732,0.980148,0.102297,1.0024531041086162,0.422059,0.42037475577557754
855,67,45.0200000000014,17.100000000002,-921,731,548,0.188856,0.97356,0.098393,0.9965775658647951,0.4202696666666666,0.42039307590759084
856,67,45.0400000000014,17.120000000001998,536936130,133133,560,0.186172,0.984235,0.099247,1.0065925272015483,0.42321800000000004,0.4204313267326733
857,67,45.0600000000014,17.140000000002,536936130,133133,559,0.184708,0.979233,0.104066,1.0019201794100168,0.422669,0.42047159075907586
858,67,45.0800000000014,17.160000000001997,0,86903,542,0.184037,0.971364,0.101199,0.9938102814249811,0.41886666666666666,0.42046212871287125
859,67,45.1000000000014,17.180000000002,0,86903,496,0.180926,0.977525,0.099064,0.9990510593543255,0.41917166666666666,0.42046011551155105
860,67,45.1200000000014,17.200000000001996,536936130,133133,437,0.182634,0.980026,0.092354,1.001167019007318,0.41833800000000004,0.4204544785478546
861,67,45.1400000000014,17.220000000002,0,86903,431,0.184647,0.972401,0.114802,0.9964124239560644,0.42395000000000005,0.4205027953795379
862,67,45.1600000000014,17.240000000002002,-835,500,409,0.187697,0.969229,0.103944,0.9926929904990767,0.42029,0.4205225247524751
863,67,45.1800000000014,17.260000000001998,0,0,408,0.175558,0.983503,0.0976,1.0038050220899475,0.41888699999999995,0.420520511551155
864,67,45.2000000000014,17.280000000002,234636,0,403,0.182024,0.972218,0.105957,0.9947700548111609,0.4200663333333334,0.4205267524752474
865,67,45.2200000000014,17.300000000001997,536936130,133133,391,0.187209,0.975573,0.095953,0.9979964259550231,0.41957833333333333,0.4205325907590759
866,67,45.2400000000014,17.320000000002,116621,536878210,389,0.187026,0.980026,0.096624,1.0023801089048006,0.42122533333333334,0.4205535280528052
867,67,45.2600000000014,17.340000000001996,-805,499,381,0.185318,0.980697,0.097478,1.0028017388382413,0.4211643333333333,0.42057667986798675
